timestamp,accel_x,accel_y,accel_z,gyro_x,gyro_y,gyro_z,rot_w,rot_x,rot_y,rot_z
7484940000000,0.0,0.0,0.0,-0.4156938,-0.22128594,-0.105832405,1.0,0.0,0.0,0.0
7484980000000,-0.40080023,-0.20147562,-0.039343834,-0.43066,-0.35246924,-0.12843442,0.43341267,-0.017225822,-0.28711483,0.85406196
7485000000000,-0.26827455,-0.19533491,-0.045708656,-0.40653083,-0.36911532,-0.12782355,0.43339556,-0.015545654,-0.2923812,0.8523145
7485020000000,-0.29377675,-0.31654215,0.034125328,-0.35414913,-0.3585779,-0.13118331,0.4333366,-0.013714682,-0.29720056,0.8507074
7485040000000,-0.19905758,-0.041601658,-0.021281242,-0.36545014,-0.3294091,-0.10873401,0.43334952,-0.011881373,-0.30159086,0.84918207
7485060000000,-0.1374538,-0.09701252,-0.10075569,-0.3885103,-0.2771801,-0.073303826,0.43311533,-0.010718941,-0.3062035,0.84766483
7485080000000,-0.10151172,-0.26772165,-0.111831665,-0.30497447,-0.20525073,-0.05085453,0.4328421,-0.010112327,-0.31033027,0.8463101
7485100000000,-0.097999334,-0.4143572,-0.08347416,-0.17363845,-0.13271047,-0.03940081,0.43264696,-0.009638581,-0.3130187,0.84542483
7485120000000,-0.123027086,-0.4151802,-0.12257147,-0.05681047,-0.07192938,-0.035430185,0.43266144,-0.0091695795,-0.31429237,0.84494996
7485140000000,-0.23336768,-0.28348827,-0.05252266,-0.005955936,-0.04520403,-0.028252518,0.43277255,-0.00877406,-0.31462228,0.8447744
7485160000000,-0.2619567,-0.1998086,-0.08606863,0.05971208,-0.037415497,-0.013744468,0.4328428,-0.008266032,-0.3145326,0.844777
7485180000000,-0.23063278,-0.24844265,-0.082977295,0.09254608,-0.02275473,-0.012064588,0.43281516,-0.0076464885,-0.3139522,0.8450128
7485200000000,-0.19482422,-0.21456194,-0.12475157,0.13423763,-0.0032070426,-0.011148291,0.43288815,-0.007044601,-0.31304988,0.8453154
7485220000000,-0.24770617,-0.19504786,-0.016700268,0.15943582,-0.008399397,-0.01695151,0.4330119,-0.006373532,-0.3117201,0.8457486
7485240000000,-0.30025697,-0.1538682,0.0524683,0.12950343,-0.046120327,-0.02397646,0.43310547,-0.005484662,-0.31054235,0.84614015
7485260000000,-0.33651018,-0.3564973,0.025870323,0.11682798,-0.072540246,-0.044745877,0.4331973,-0.004327607,-0.3097988,0.84637237
7485280000000,-0.26957273,0.17827463,-0.14399481,0.08093964,-0.08979719,-0.02611449,0.4333247,-0.003044981,-0.30930573,0.84649295
7485300000000,-0.19501281,-0.08468008,0.008313179,0.01985312,-0.087659165,-0.0047342055,0.4331284,-0.0020344332,-0.30924597,0.8466184
7485320000000,-0.22768402,0.08583641,-0.018437386,-0.08399397,-0.09865474,0.02321288,0.43280002,-0.0014319227,-0.3098648,0.8465613
7485340000000,-0.23595476,0.22971916,-0.066895485,-0.25671613,-0.11133019,0.063224554,0.4320819,-0.0014129707,-0.3117535,0.8462346
7485360000000,-0.23556328,0.15072918,-0.05678177,-0.41813725,-0.111177474,0.06337727,0.43108168,-0.0022267364,-0.31526425,0.84544194
7485380000000,-0.1654234,-0.38096666,0.05583906,-0.4775439,-0.086132,0.036957346,0.43030235,-0.0036052633,-0.31974277,0.8441513
7485400000000,-0.2010088,-0.5562558,0.05288458,-0.45204028,-0.064599,-0.0106901415,0.4299807,-0.005107655,-0.32404467,0.84266585
7485420000000,-0.29792976,-0.17771292,-0.0007019043,-0.37323865,-0.071318515,0.0061086523,0.42987168,-0.0063895606,-0.32787058,0.84123147
7485440000000,-0.22439122,-0.14945745,-0.28299284,-0.15622878,-0.07620544,0.032528576,0.4294109,-0.007009593,-0.3305307,0.84042054
7485460000000,-0.25059485,0.21589613,-0.3943224,-0.008857546,-0.0693332,0.052839845,0.42877042,-0.006760475,-0.3311707,0.84049773
7485480000000,-0.37437868,0.2815132,-0.11074638,-0.05222898,-0.10995574,0.043676864,0.42806104,-0.006227807,-0.33145306,0.8407519
7485500000000,-0.3874216,-0.23627663,0.0061154366,-0.10323623,-0.14538592,-0.00045814895,0.4273694,-0.0056215744,-0.33281413,0.8405704
7485520000000,-0.21363711,-0.34672928,-0.09735918,-0.05665775,-0.12644911,-0.04810564,0.4271142,-0.0047527347,-0.33427727,0.8401248
7485540000000,-0.12041712,-0.33088827,-0.11413479,0.028863383,-0.081855945,-0.04886922,0.42724118,-0.0037780327,-0.33486137,0.83983254
7485560000000,-0.17262006,-0.37648487,-0.04841709,0.082161374,-0.03726278,-0.040775254,0.42744437,-0.0028364747,-0.33450422,0.83987516
7485580000000,-0.12386179,-0.2303133,-0.08340359,0.10720685,0.0038179078,-0.018020526,0.42767167,-0.0022382964,-0.33373615,0.8400668
7485600000000,-0.1350689,-0.051514626,-0.07537031,0.1020145,0.032070424,0.02687807,0.42770398,-0.001963481,-0.33267134,0.84047335
7485620000000,-0.16203523,-0.025268078,-0.1925211,0.13897185,0.04917465,0.04352415,0.427515,-0.0020379557,-0.33157027,0.8410041
7485640000000,-0.21460223,-0.683022,0.003590107,0.23518312,0.05207626,-0.03268129,0.4274271,-0.001845572,-0.32996044,0.8416822
7485660000000,-0.2335062,-1.0118732,-0.0033011436,0.44730607,0.09560041,-0.1479821,0.4285086,-0.0006503587,-0.32680804,0.84236354
7485680000000,-0.25139928,-0.45029545,-0.2390995,0.6568329,0.13332134,-0.19593503,0.4304972,0.0013491808,-0.32150576,0.84338874
7485700000000,-0.19265985,-0.26105785,-0.28334522,0.8151997,0.14844026,-0.21670444,0.43267968,0.003997477,-0.3144872,0.8449083
7485720000000,-0.38034296,-0.49929333,0.05688572,0.88193667,0.11866058,-0.2660318,0.43506482,0.0073015317,-0.30646616,0.8466072
7485740000000,-0.54410887,-0.7855911,0.21627522,0.8749117,0.05085453,-0.31490102,0.43783832,0.011295067,-0.2985254,0.8479697
7485760000000,-0.4015429,0.040952682,0.20408154,0.655153,-0.072540246,0.10552697,0.43853593,0.0152485715,-0.2921629,0.84976155
7485780000000,-0.4061494,-0.07370758,-0.06688118,0.5508477,-0.038331795,-0.11835514,0.43705574,0.018103492,-0.2879126,0.8519161
7485800000000,-0.57737017,-0.50822306,-0.66214705,0.51266867,0.0664316,-0.27320948,0.44044384,0.021324094,-0.28287342,0.85178465
7485820000000,-0.031358242,0.1744461,-0.46970892,0.41890085,0.12767084,0.07437284,0.44063324,0.022657424,-0.2784731,0.8531013
7485840000000,-0.46365762,0.17503548,0.2687006,0.18020524,0.05100725,-0.03573562,0.44075948,0.022696769,-0.2751392,0.8541161
7485860000000,-0.30140686,0.47531104,0.53834534,0.023060163,-0.08536842,-0.01740966,0.44101623,0.023297332,-0.27446577,0.85418415
7485880000000,0.13011932,0.69844294,-0.0104961395,-0.06001751,-0.12507465,0.024892759,0.44052795,0.024349593,-0.2752395,0.8541578
7485900000000,-0.061556578,0.6298027,-0.28880978,-0.15836681,-0.122478485,0.007483099,0.44016418,0.024884645,-0.27679348,0.8538276
7485920000000,-0.035422325,0.012355804,-0.18165684,-0.15622878,-0.08246681,0.021838432,0.43973386,0.02496749,-0.27886042,0.85337436
7485940000000,-0.018768549,-0.519753,0.045772552,-0.078343466,-0.0025961774,0.008857546,0.43949437,0.024703143,-0.2800738,0.853108
7485960000000,-0.17911267,-0.36528683,-0.082505226,-0.0033597588,0.034972034,0.015271631,0.4395516,0.024268316,-0.2802659,0.8530278
7485980000000,-0.1952169,-0.42003012,-0.041456223,0.063988134,0.043218717,0.024587326,0.43942845,0.023955626,-0.27973118,0.8532756
7486000000000,-0.2703352,-0.21480179,0.10361862,0.037415497,0.022602014,-0.005955936,0.43936285,0.023884287,-0.27891406,0.8535788
7486020000000,-0.3371663,0.0663929,-0.022346497,-0.03970624,-0.005955936,-0.050701816,0.4397312,0.023866385,-0.27897924,0.8533683
7486040000000,-0.13632846,-0.27003002,-0.13233471,0.0018325958,0.0106901415,-0.026419923,0.44006532,0.023881204,-0.27933037,0.85308075
7486060000000,-0.1636045,-0.20343256,0.010597229,0.029168816,0.040011674,-0.01282817,0.4403349,0.023756094,-0.27892905,0.8530766
7486080000000,-0.22383094,0.09384489,-0.0539093,-0.030390546,0.04596761,-0.0290161,0.44061238,0.023423512,-0.27864033,0.8530367
7486100000000,-0.09939432,0.010377407,-0.13028622,-0.04260785,0.04734206,-0.01695151,0.4409672,0.022894807,-0.27885774,0.8527966
7486120000000,-0.2043705,-0.08129072,-0.06644344,-0.035124753,0.037415497,-0.021533,0.4412663,0.022346955,-0.2789958,0.8526113
7486140000000,-0.2219224,-0.37644005,0.009819031,0.012980887,0.0346666,-0.0154243475,0.44148958,0.02202755,-0.279027,0.8524939
7486160000000,-0.18983793,-0.7462759,0.16055775,0.08231409,0.06765333,-0.06337727,0.44189498,0.021937149,-0.27839008,0.8524944
7486180000000,-0.14575267,-0.21734047,-0.06459808,0.13164146,0.089186326,-0.045356743,0.44267228,0.021908008,-0.2769406,0.85256386
7486200000000,-0.35238218,0.30683947,0.00045394897,0.029321533,0.051159963,-0.06307184,0.44326693,0.021788826,-0.2756265,0.85268396
7486220000000,-0.36444378,0.0792861,-0.104299545,-0.033750303,0.00290161,-0.031154128,0.44382012,0.021685146,-0.27572525,0.8523667
7486240000000,-0.27862406,0.13258839,-0.15410423,-0.0804815,-0.019089539,-0.02031127,0.44401708,0.02154963,-0.27626857,0.8520916
7486260000000,-0.33241725,0.027022839,-0.20254517,-0.10567969,-0.06780604,0.017715093,0.44392306,0.021494241,-0.27732295,0.85179955
7486280000000,-0.18867397,-0.046812534,-0.19373798,-0.08109236,-0.095753126,0.052839845,0.44339234,0.021660518,-0.27859756,0.8516558
7486300000000,-0.24792552,-0.35489702,-0.09003258,-0.024892759,-0.0983493,0.08002335,0.4424954,0.022035262,-0.2795346,0.8518055
7486320000000,-0.17760491,-0.21592855,0.010733604,0.005955936,-0.10140363,0.09605856,0.44141403,0.022647979,-0.2799149,0.8522255
7486340000000,-0.29885554,0.054811,0.04572487,-0.054519724,-0.09514226,0.07819075,0.440422,0.023178386,-0.28047463,0.85254055
7486360000000,-0.18892765,0.3369608,-0.12554264,-0.13133603,-0.07147124,0.06246097,0.43960655,0.023212427,-0.28165475,0.85257137
7486380000000,-0.1797297,-0.104765415,0.06748867,-0.20479257,-0.06505715,0.021380283,0.43912646,0.022852665,-0.28346288,0.8522292
7486400000000,-0.19762993,-0.25595474,0.053430557,-0.20769419,-0.04886922,-0.0056505036,0.43893892,0.022374833,-0.2856015,0.85162413
7486420000000,-0.24792719,-0.12081337,-0.061083794,-0.19135354,-0.02687807,-0.009162978,0.43904933,0.021778071,-0.28742,0.85097075
7486440000000,-0.14315915,-0.37466526,0.03412342,-0.17256944,-0.024587326,-0.021991149,0.43904063,0.021244623,-0.28908038,0.850426
7486460000000,-0.2112155,-0.34530163,-0.18105507,-0.12370021,-0.004886922,-0.01695151,0.4393701,0.020711446,-0.29048032,0.84979194
7486480000000,-0.16167998,-0.1517744,-0.046816826,-0.05024367,0.00045814895,0.02107485,0.43931055,0.020321807,-0.29115123,0.84960246
7486500000000,-0.288486,-0.27134943,0.006304741,-0.023365596,-0.0015271631,0.024129177,0.43903762,0.0200822,-0.2913268,0.849689
7486520000000,-0.27602673,-0.15163994,0.013929367,-0.037873644,-0.032375857,0.016340645,0.43884137,0.019974036,-0.29160535,0.84969735
7486540000000,-0.22583032,-0.21884012,0.059386253,-0.03924809,-0.04062254,0.008246681,0.4386233,0.020128401,-0.2921751,0.8496106
7486560000000,-0.2579162,0.001938343,-0.043099403,-0.06719518,-0.031154128,-0.003970624,0.43851805,0.020203695,-0.2926815,0.84948885
7486580000000,-0.19882965,0.098282814,-0.10927582,-0.12660182,-0.03924809,-0.010842858,0.43850234,0.020097766,-0.2936549,0.84916353
7486600000000,-0.17631817,-0.109908104,-0.115763664,-0.12767084,-0.02367103,-0.009010263,0.43855748,0.019775147,-0.29505184,0.8486582
7486620000000,-0.16504121,-0.3022251,-0.009119034,-0.06582073,0.002443461,0.008093964,0.43854496,0.019402033,-0.2959326,0.84836656
7486640000000,-0.15327072,-0.21108389,-0.027323723,-0.051465396,0.013286319,0.0053450707,0.43849042,0.019058459,-0.29625347,0.8482905
7486660000000,-0.18260312,-0.120731354,-0.08329868,-0.05971208,0.022296581,0.006872234,0.4385169,0.01863028,-0.29665896,0.8481447
7486680000000,-0.25912213,-0.106910706,-0.044955254,-0.040775254,0.023518313,0.010537425,0.43855104,0.018107427,-0.29699227,0.8480216
7486700000000,-0.3059008,-0.25253153,0.04758644,-0.034208454,0.004581489,0.00030543262,0.43851483,0.0177604,-0.2971686,0.847986
7486720000000,-0.29865575,-0.20350266,0.0022649765,-0.043982297,-0.02397646,-0.010231993,0.4385454,0.01766115,-0.29753286,0.84784454
7486740000000,-0.26618814,-0.1761179,-0.022345543,-0.0421497,-0.03756821,-0.009010263,0.438547,0.017744232,-0.29806605,0.84765464
7486760000000,-0.25883508,-0.05375004,-0.017246246,-0.05375614,-0.04627304,-0.0053450707,0.43847096,0.017900916,-0.29858544,0.84750783
7486780000000,-0.2665298,-0.08580828,-0.06984043,-0.09987647,-0.05879578,-0.01817324,0.43841574,0.018048551,-0.29947448,0.84721965
7486800000000,-0.20789957,-0.14742374,-0.087700844,-0.08032878,-0.0580322,-0.0018325958,0.43837968,0.018124726,-0.30063474,0.84682566
7486820000000,-0.24986768,-0.3594551,0.038739204,-0.032375857,-0.048563786,0.007788532,0.43815634,0.018292828,-0.30129993,0.846701
7486840000000,-0.21332407,-0.17676449,0.027127266,-0.03924809,-0.058948494,-0.0041233404,0.4379682,0.018572845,-0.30170292,0.8466489
7486860000000,-0.22886229,-0.051993847,-0.079031944,-0.068264194,-0.05879578,-0.008857546,0.43789288,0.01888198,-0.30245808,0.8464115
7486880000000,-0.16019344,-0.073675156,-0.07142639,-0.06505715,-0.04153884,0.0022907446,0.43776152,0.018994603,-0.30328003,0.8461828
7486900000000,-0.21127725,-0.13676786,-0.03159237,-0.072540246,-0.034055736,0.007330383,0.43761042,0.01895048,-0.3039551,0.84601974
7486920000000,-0.21249986,-0.122255325,-0.07501221,-0.08506299,-0.031612277,0.0035124752,0.4374914,0.018824795,-0.30480278,0.8457791
7486940000000,-0.14591146,-0.117509365,-0.10346222,-0.07971791,-0.016798794,-0.032528576,0.43752858,0.018664306,-0.30554867,0.84549415
7486960000000,-0.24547672,-0.077028275,0.004008293,-0.08155051,-0.02733622,0.013744468,0.43753573,0.018479375,-0.30630398,0.8452213
7486980000000,-0.2402947,-0.2586255,-0.01809311,-0.08735373,-0.032986723,-0.020158553,0.437512,0.018362999,-0.30715045,0.8449288
7487000000000,-0.1803248,-0.10528612,-0.16389465,-0.07971791,-0.011301007,-0.051465396,0.43760714,0.018276043,-0.3079965,0.84457344
7487020000000,-0.25846863,-0.015983105,-0.009895325,-0.077579886,-0.024740042,-0.010231993,0.438094,0.018166993,-0.30866006,0.844081
7487040000000,-0.20075464,-0.24591732,0.06638813,-0.076816306,-0.037110064,-0.004886922,0.43792072,0.018075306,-0.3094774,0.84387356
7487060000000,-0.2249105,-0.21249533,-0.08534193,-0.04795292,-0.027947085,0.0009162979,0.43785626,0.018061021,-0.31019726,0.84364307
7487080000000,-0.16258168,-0.120809555,-0.051119328,-0.03863723,-0.0053450707,0.0035124752,0.43777606,0.018054908,-0.31055513,0.843553
7487100000000,-0.16178489,-0.23687601,-0.029545784,-0.0106901415,0.014660766,0.007788532,0.43775004,0.017805653,-0.31081977,0.8434744
7487120000000,-0.25168347,-0.6258712,0.018779278,0.102319926,0.0065668016,0.035124753,0.4376431,0.017687712,-0.31042343,0.84367824
7487140000000,-0.31309533,-0.43016195,0.20491028,0.13408493,-0.025809057,0.021838432,0.43727085,0.01831285,-0.3092076,0.84430414
7487160000000,-0.2481842,0.02523613,0.10486698,0.05757405,-0.039858956,0.010231993,0.43702027,0.019031443,-0.30845687,0.84469247
7487180000000,-0.19150281,0.05336809,-0.25954914,0.023060163,-0.016493361,0.037415497,0.43679482,0.019384295,-0.3084132,0.8448171
7487200000000,-0.054779053,0.44615364,-0.27316856,-0.017562376,0.022296581,0.08506299,0.43624932,0.019151779,-0.30826232,0.84515935
7487220000000,-0.30589318,0.35051775,0.02076149,-0.1695151,-0.020005837,0.1421789,0.43535832,0.018302066,-0.3088795,0.8454121
7487240000000,-0.26881003,-0.16478968,0.13554144,-0.27488935,-0.06383542,0.08307768,0.43416503,0.01720409,-0.31128007,0.8451683
7487260000000,-0.22705579,-0.4860096,-0.034599304,-0.19333886,-0.0627664,0.044135015,0.43348375,0.016462646,-0.31386167,0.8445779
7487280000000,-0.17944193,-0.39173794,-0.05284214,-0.08155051,-0.041080687,0.008246681,0.43317538,0.016260004,-0.31513715,0.844265
7487300000000,-0.16019416,-0.15886164,-0.12266016,-0.041691553,-0.021685716,-0.0016798794,0.43309623,0.016321784,-0.31564635,0.8441141
7487320000000,-0.16817594,-0.003296852,-0.24068117,-0.00061086525,0.0013744468,0.006414085,0.4330872,0.016301533,-0.315893,0.84402686
7487340000000,-0.10247755,-0.15285349,-0.1897068,0.098807454,0.03924809,0.009315695,0.43304065,0.016275901,-0.31545725,0.8442142
7487360000000,-0.12991881,-0.3241439,-0.104399204,0.1853976,0.07467828,0.0065668016,0.4331344,0.016387485,-0.31384337,0.84476525
7487380000000,-0.17087793,-0.087575436,-0.080637455,0.18524489,0.07620544,-0.005192355,0.43335453,0.016540237,-0.31176993,0.84541696
7487400000000,-0.18206835,0.13009548,-0.032999992,0.09407325,0.06047566,0.0032070426,0.43360123,0.01666259,-0.31008282,0.84590846
7487420000000,-0.27292895,0.08597565,0.11596537,-0.034513887,0.011759156,-0.012980887,0.4336643,0.016285382,-0.30977854,0.84599483
7487440000000,-0.29349947,-0.47295952,0.11959553,-0.04886922,-0.013133603,-0.07009678,0.43393525,0.016205687,-0.31040448,0.8456279
7487460000000,-0.2353611,-0.41708612,-0.06813574,0.028099801,-0.00076358154,-0.09590584,0.43472725,0.016448837,-0.3106449,0.8451281
7487480000000,-0.19207358,-0.15230083,-0.061176777,0.06582073,-0.005497787,-0.04718934,0.43548316,0.017027931,-0.30997235,0.84497434
7487500000000,-0.23121142,0.051188946,-0.09693003,0.02565634,-0.012217305,-0.02443461,0.43559548,0.017346496,-0.30957717,0.8450548
7487520000000,-0.20577216,-0.027513027,-0.09885597,0.014966198,-0.01450805,-0.0018325958,0.43566504,0.017581169,-0.30956963,0.8450169
7487540000000,-0.2347529,-0.15660524,-0.00022315979,0.041233405,-0.00290161,0.012370021,0.43543044,0.017823223,-0.3088774,0.84538597
7487560000000,-0.20257998,0.14975691,-0.057717323,-0.028405234,-0.007788532,0.0030543262,0.43534127,0.017892314,-0.30878803,0.8454631
7487580000000,-0.23119831,0.010149479,-0.05484724,-0.06612616,-0.015577064,-0.004581489,0.43535322,0.017682172,-0.30937874,0.8452454
7487600000000,-0.18963099,-0.54412365,0.11781025,-0.0027488936,-0.019700404,-0.016035212,0.43535492,0.017644495,-0.3098998,0.84505445
7487620000000,-0.2437172,-0.6901603,0.030137539,0.11591168,-0.019394971,-0.021380283,0.4354715,0.018115278,-0.3095163,0.84512496
7487640000000,-0.21122837,-0.36319542,-0.070500374,0.1994475,-0.021227567,-0.0071776668,0.43550926,0.019062009,-0.3080985,0.84560263
7487660000000,-0.2609992,-0.058278084,-0.046183586,0.1769982,-0.030543262,-0.00992656,0.43541068,0.0201869,-0.3064188,0.84623736
7487680000000,-0.259171,0.21366358,-0.08051872,0.07819075,-0.04627304,-0.030543262,0.43543482,0.021136006,-0.30544496,0.8465537
7487700000000,-0.2246139,0.22095919,-0.23313808,0.0154243475,-0.051159963,-0.01740966,0.4355514,0.021811176,-0.30546075,0.8464709
7487720000000,-0.097990274,-0.27248716,-0.009586334,0.03176499,-0.03604105,0.00290161,0.4353993,0.02225305,-0.30553243,0.84651184
7487740000000,-0.18823028,-0.23209143,0.030586243,0.035124753,-0.024892759,-0.0018325958,0.43530428,0.02260848,-0.30532464,0.84662616
7487760000000,-0.17254734,-0.025615692,-0.097019196,0.027641652,-0.0096211275,0.0050396384,0.43523595,0.022896986,-0.30512977,0.84672385
7487780000000,-0.16168761,-0.032163143,-0.11511612,0.016340645,0.0070249503,0.017715093,0.43512258,0.022942849,-0.304931,0.84685236
7487800000000,-0.16407037,-0.032185555,0.020539284,-0.02443461,0.016340645,-0.0021380284,0.43504837,0.022747574,-0.30484512,0.84692687
7487820000000,-0.2556696,-0.12653637,-0.0038223267,-0.051159963,0.012217305,-0.021991149,0.4352483,0.022423605,-0.30517212,0.8467149
7487840000000,-0.15256333,-0.25196505,-0.05433035,-0.017562376,0.01863139,-0.016035212,0.4355029,0.02217033,-0.30548447,0.8464781
7487860000000,-0.16678739,-0.29402924,-0.042585373,0.03924809,0.026419923,0.00030543262,0.43562722,0.022016183,-0.3052842,0.8464903
7487880000000,-0.21269274,-0.25276232,0.07315636,0.054367006,0.034513887,-0.027641652,0.43573654,0.021995109,-0.30461252,0.8466765
7487900000000,-0.26777077,-0.035841465,-0.05907011,0.039553523,0.020463986,-0.029321533,0.43615392,0.022066232,-0.30406848,0.84665537
7487920000000,-0.08485937,-0.17490435,-0.16142416,0.06872234,0.04138612,0.009315695,0.43633604,0.022068664,-0.3035997,0.8467296
7487940000000,-0.1382842,-0.2166996,-0.119665146,0.084910266,0.06261369,0.021685716,0.4362574,0.021852741,-0.30259418,0.84713566
7487960000000,-0.20611048,0.05026102,0.09225845,0.032223143,0.038179077,-0.011301007,0.43627343,0.021616016,-0.3017404,0.8474379
7487980000000,-0.23579144,-0.32857704,0.044704437,0.025503624,0.024281893,-0.03283401,0.43664858,0.021512855,-0.3015519,0.8473144
7488000000000,-0.1212728,-0.24445915,-0.12226009,0.062002823,0.0421497,-0.023518313,0.43699372,0.021540774,-0.30105317,0.8473131
7488020000000,-0.17054057,0.18565416,-0.13423538,0.054061573,0.05100725,-0.0030543262,0.437209,0.021446677,-0.30022115,0.8474997
7488040000000,-0.17680097,-0.16252041,0.1227026,0.015882496,0.04520403,-0.04138612,0.43745083,0.021187847,-0.29969198,0.8475686
7488060000000,-0.31157565,-0.30904818,0.07087612,-0.005497787,0.025809057,-0.07437284,0.4381489,0.02104352,-0.29955238,0.84726095
7488080000000,-0.1676321,-0.026838303,-0.3293848,0.041996986,0.036193766,-0.016187929,0.438701,0.02107098,-0.29931462,0.84705865
7488100000000,-0.22905207,0.3419981,-0.24876738,0.005955936,0.025350908,0.031001411,0.43870676,0.020883352,-0.29874298,0.847262
7488120000000,-0.38396025,0.13781786,0.0063228607,-0.0759,-0.03145956,0.03145956,0.4383357,0.020567836,-0.29908234,0.8473421
7488140000000,-0.2831664,-0.23296022,-0.05082798,-0.080634214,-0.051465396,0.020616703,0.43800223,0.020448638,-0.30014277,0.84714246
7488160000000,-0.16341114,-0.03930044,-0.12713385,-0.06352998,-0.053145275,0.035888333,0.4376279,0.020536872,-0.30095443,0.8470458
7488180000000,-0.17942142,-0.08949137,-0.07526684,-0.08353582,-0.06093381,0.029168816,0.43720287,0.020547595,-0.30182448,0.84695536
7488200000000,-0.13545513,-0.21127224,-0.018123627,-0.0842994,-0.044745877,0.013744468,0.43683326,0.02056723,-0.3028145,0.8467923
7488220000000,-0.1363945,-0.15844107,0.030395508,-0.081855945,-0.03023783,0.016493361,0.43660995,0.020467766,-0.30364347,0.846613
7488240000000,-0.19266224,-0.122433186,0.01727581,-0.10262536,-0.017715093,-0.0,0.43651563,0.0201936,-0.30449545,0.8463622
7488260000000,-0.12244034,-0.121665955,-0.029202461,-0.117438845,0.0018325958,-0.009468411,0.4365544,0.019799266,-0.30548522,0.8459948
7488280000000,-0.17675424,-0.055872917,-0.116698265,-0.11789699,0.01863139,-0.0050396384,0.43673378,0.019153947,-0.30644765,0.8455688
7488300000000,-0.18317032,-0.22536182,-0.04994011,-0.08674286,0.038026363,-0.05085453,0.43679562,0.018461676,-0.30728725,0.84524757
7488320000000,-0.3647921,-0.23120451,-0.050315857,-0.049785517,0.01695151,-0.0016798794,0.43782666,0.01808868,-0.3076854,0.8445771
7488340000000,-0.14587402,-0.17589235,-0.05742693,-0.022296581,0.0018325958,0.00076358154,0.4375337,0.017809192,-0.30789632,0.84465796
7488360000000,-0.23771048,-0.12487316,0.0027284622,-0.031154128,-0.016340645,0.0050396384,0.43744203,0.017717153,-0.3080844,0.8446387
7488380000000,-0.23651576,-0.09205198,-0.05819702,-0.05513059,-0.022296581,-0.00992656,0.43742406,0.017707,-0.30854008,0.844482
7488400000000,-0.1562705,-0.021466732,-0.0045843124,-0.08231409,-0.014813482,-0.015271631,0.43748856,0.017593851,-0.30919325,0.8442119
7488420000000,-0.19027662,0.0015382767,-0.039551258,-0.10262536,0.00076358154,-0.06811147,0.4376253,0.017292788,-0.3100751,0.8438238
7488440000000,-0.26456428,-0.17232656,-0.0031533241,-0.10995574,-0.02031127,-0.057268616,0.43871856,0.017178757,-0.31097376,0.84292716
7488460000000,-0.06971574,-0.14588594,-0.04804039,-0.110872045,-0.009773844,-0.00580322,0.43863708,0.016879987,-0.31204242,0.84258074
7488480000000,-0.16772461,-0.1589694,-0.11227226,-0.076816306,0.0076358155,0.0035124752,0.43867162,0.016435234,-0.3128483,0.84227264
7488500000000,-0.16964555,-0.1357975,-0.08332634,-0.061850104,0.021838432,0.001985312,0.43869698,0.015982332,-0.3132626,0.8421141
7488520000000,-0.21126533,-0.116719246,0.004143238,-0.054367006,0.013591751,-0.00030543262,0.43875495,0.015486668,-0.3136899,0.8419341
7488540000000,-0.20392251,-0.29412603,-0.016814232,0.0009162979,0.011453724,-0.010842858,0.4388258,0.015226667,-0.31393525,0.8418105
7488560000000,-0.23778725,-0.33654737,0.013480186,0.025809057,0.0012217305,-0.021838432,0.43896782,0.015305691,-0.31365424,0.8418397
7488580000000,-0.18934202,-0.0637207,-0.04846239,-0.005192355,-0.011301007,-0.02397646,0.43918487,0.015529112,-0.3134935,0.8417823
7488600000000,-0.23817039,0.18117428,-0.06864643,-0.086132,-0.016187929,0.0032070426,0.43927622,0.015481516,-0.31391767,0.84157735
7488620000000,-0.19604301,0.0940485,-0.050983906,-0.14065172,-0.033750303,0.03924809,0.4390129,0.015049055,-0.3150987,0.8412813
7488640000000,-0.21258187,-0.22308254,0.013354778,-0.14630222,-0.04062254,0.04230242,0.4384954,0.014544751,-0.31655964,0.8410114
7488660000000,-0.22011757,-0.22171068,-0.014785767,-0.10980303,-0.045356743,0.033292156,0.43804994,0.014167228,-0.31785944,0.8407598
7488680000000,-0.17293382,-0.13112545,0.01189518,-0.09040806,-0.04917465,0.023365596,0.437687,0.014035917,-0.31883532,0.8405815
7488700000000,-0.19557858,-0.10944939,-0.11603546,-0.10430524,-0.041233405,0.016798794,0.437379,0.013914193,-0.31988266,0.84034586
7488720000000,-0.14149213,-0.1369276,-0.065294266,-0.08124508,-0.035430185,0.02107485,0.43713218,0.013755401,-0.3208266,0.84011704
7488740000000,-0.17045546,-0.1720047,0.00079631805,-0.07147124,-0.034513887,0.01740966,0.43685547,0.01364446,-0.32154712,0.8399874
7488760000000,-0.20093751,-0.025392056,-0.052700996,-0.09911288,-0.037415497,0.018478673,0.43661126,0.013502309,-0.32240662,0.83978707
7488780000000,-0.18259263,0.021116734,-0.079730034,-0.13744467,-0.031612277,0.028252518,0.4363348,0.013216618,-0.3235501,0.8394954
7488800000000,-0.20869946,0.051352024,-0.018442154,-0.19394971,-0.037873644,0.042913284,0.43594944,0.012622543,-0.3250441,0.8391277
7488820000000,-0.22608876,-0.024493217,0.010813236,-0.21838433,-0.055436023,0.045356743,0.4354416,0.011910433,-0.32705095,0.83862174
7488840000000,-0.21097183,-0.17075491,-0.0123586655,-0.22128594,-0.06490443,0.04841107,0.43484357,0.011226932,-0.32921538,0.83809453
7488860000000,-0.20319605,-0.18026161,0.017391205,-0.21166481,-0.077579886,0.03894266,0.43427193,0.01074141,-0.33130977,0.8375718
7488880000000,-0.19291472,-0.0960536,-0.040777206,-0.2218968,-0.07849618,0.043982297,0.43368647,0.010335139,-0.3334432,0.83703333
7488900000000,-0.20434403,-0.08465958,-0.05653143,-0.20738874,-0.07803804,0.044745877,0.43308505,0.009850387,-0.33562255,0.8364795
7488920000000,-0.17421865,-0.231009,-0.036563873,-0.16982053,-0.077121735,0.043982297,0.43242484,0.009495415,-0.33757073,0.836041
7488940000000,-0.14768672,-0.27855635,-0.06487703,-0.112704635,-0.055741455,0.024587326,0.43190727,0.0093161315,-0.3390519,0.83571124
7488960000000,-0.13483691,-0.19872952,-0.07994223,-0.07498371,-0.02855795,0.01740966,0.43162867,0.009210652,-0.33993915,0.8354958
7488980000000,-0.12508297,-0.092216015,-0.122173786,-0.03756821,-0.001985312,0.0096211275,0.43148184,0.009009748,-0.3404625,0.8353607
7489000000000,-0.152277,-0.19065809,-0.036598206,-0.0062613687,0.013744468,0.0062613687,0.43144262,0.008807731,-0.34056088,0.835343
7489020000000,-0.14378786,-0.15750456,-0.017551899,-0.0013744468,0.021533,-0.0015271631,0.43148866,0.008612658,-0.34045538,0.8353643
7489040000000,-0.1605103,-0.1311121,-0.052747726,-0.01038471,0.023365596,-0.0038179078,0.43159434,0.008387973,-0.34039298,0.8353374
7489060000000,-0.1597352,-0.068259716,-0.043787956,-0.0125227375,0.02855795,0.00870483,0.43170017,0.008101615,-0.34038904,0.83528715
7489080000000,-0.17821598,-0.20765352,-0.09881306,0.022602014,0.03863723,0.023518313,0.4316337,0.0076957936,-0.3402951,0.8353636
7489100000000,-0.13834977,-0.254714,-0.09236908,0.098043874,0.059406646,0.027794369,0.43158156,0.007438856,-0.3395565,0.83569336
7489120000000,-0.2291398,-0.18368626,0.04951334,0.07360926,0.05024367,0.025198191,0.43152797,0.007278645,-0.3383425,0.83621466
7489140000000,-0.23283672,0.024333,-0.056492805,0.023518313,0.020922136,0.028863383,0.431458,0.0070556416,-0.33788538,0.8364376
7489160000000,-0.21690631,-0.3306961,-0.009149075,0.03726278,0.017562376,0.020922136,0.43124446,0.0068888143,-0.3376697,0.8366362
7489180000000,-0.21723938,-0.19905996,0.030718327,0.04337143,0.0012217305,0.0061086523,0.43119645,0.0069122664,-0.3371849,0.8368562
7489200000000,-0.21033669,0.047697067,-0.015937328,-0.022296581,-0.027030786,0.021380283,0.4310647,0.0070966315,-0.33708194,0.8369639
7489220000000,-0.1990211,0.2005024,-0.1506815,-0.08536842,-0.033750303,0.041233405,0.43068266,0.0069914022,-0.33774802,0.836893
7489240000000,-0.15435147,0.13781023,-0.10603809,-0.13118331,-0.03863723,0.056963183,0.43014237,0.006643772,-0.33888128,0.83671564
7489260000000,-0.1842618,-0.22490454,0.0085225105,-0.13072516,-0.033292156,0.047647487,0.4295239,0.0061157756,-0.34023497,0.83648795
7489280000000,-0.1615715,-0.27969646,-0.040159702,-0.073303826,-0.024740042,0.029932396,0.4291216,0.00573772,-0.34128362,0.8362699
7489300000000,-0.1422174,-0.20681286,-0.07308197,-0.01863139,-0.011453724,0.03191771,0.4288475,0.0056120143,-0.34166527,0.83625555
7489320000000,-0.13733768,-0.06936407,-0.07817602,-0.012217305,0.0015271631,0.03970624,0.42852324,0.0054854434,-0.34172866,0.8363966
7489340000000,-0.1726861,0.09182787,-0.14734936,-0.02733622,0.011301007,0.05085453,0.42818612,0.0051814425,-0.3418181,0.8365346
7489360000000,-0.224231,0.08336592,-0.042593956,-0.07345655,-0.0032070426,0.058643065,0.42773584,0.0046858084,-0.34219152,0.8366153
7489380000000,-0.18384957,-0.22781992,-0.0021424294,-0.07086037,-0.01160644,0.040775254,0.42723975,0.004211719,-0.3429699,0.83655256
7489400000000,-0.16393828,-0.20268822,-0.106545925,-0.011453724,0.0065668016,0.035430185,0.42696387,0.003922524,-0.34339428,0.83652073
7489420000000,-0.13727045,-0.17299747,-0.14556885,0.07162395,0.033292156,0.04841107,0.42667362,0.003714277,-0.34304684,0.8368123
7489440000000,-0.14765954,-0.25431633,-0.06498194,0.121256754,0.04184427,0.052687127,0.42636114,0.0036237948,-0.34193286,0.83742756
7489460000000,-0.15401149,-0.089422226,0.0013599396,0.11209377,0.048258353,0.04642576,0.42609736,0.0035868986,-0.34064823,0.83808535
7489480000000,-0.20706701,-0.023514748,0.0016226768,0.08124508,0.03191771,0.03894266,0.4258876,0.0034699303,-0.3396266,0.83860683
7489500000000,-0.25035238,-0.09525919,0.03274727,0.03894266,0.0038179078,0.012370021,0.42569798,0.0034126535,-0.33909568,0.83891815
7489520000000,-0.19435549,-0.22388601,0.0063209534,0.041691553,-0.012217305,-0.009773844,0.4256721,0.0036145004,-0.3388735,0.83902025
7489540000000,-0.22617602,-0.11088467,-0.1102376,0.054825157,-0.011148291,-0.023823744,0.42580417,0.0039868588,-0.33850113,0.83910197
7489560000000,-0.19417238,0.050606728,-0.0632329,0.02611449,-0.018020526,-0.017104227,0.4259425,0.004379488,-0.33813664,0.8391766
7489580000000,-0.16245723,-0.16770601,-0.033343792,0.018325957,-0.01695151,-0.013744468,0.42599425,0.0046203462,-0.33813205,0.83915097
7489600000000,-0.12835121,-0.2703123,-0.044887543,0.058948494,0.00076358154,-0.01817324,0.4260813,0.0048633823,-0.3378934,0.8392015
7489620000000,-0.16745043,-0.026991367,-0.04823017,0.062308256,0.0025961774,-0.008857546,0.42625105,0.0051543303,-0.3372221,0.8393836
7489640000000,-0.15023375,-0.0702281,-0.039847374,0.02565634,0.005497787,-0.0050396384,0.4262615,0.005315878,-0.33686718,0.83951974
7489660000000,-0.11719346,-0.22921944,-0.1105814,0.07269296,0.03145956,-0.00045814895,0.42636046,0.005301482,-0.33653432,0.8396031
7489680000000,-0.15097952,-0.17372847,-0.09983063,0.1217149,0.049938235,0.0067195175,0.42645177,0.005324468,-0.33545244,0.8399895
7489700000000,-0.1839428,-0.18968105,-0.052456856,0.15439619,0.044898596,-0.0030543262,0.4265766,0.0054636775,-0.33401176,0.84049904
7489720000000,-0.19597793,0.09308958,0.024863243,0.08597928,0.02397646,-0.0036651916,0.4267586,0.0057688677,-0.33266166,0.84094006
7489740000000,-0.19282985,0.019117355,-0.09921789,0.0364992,0.012675454,0.0021380284,0.4267889,0.005811158,-0.33227304,0.84107786
7489760000000,-0.13214874,-0.19087744,-0.044527054,0.063988134,0.016340645,-0.0036651916,0.4268139,0.0058640325,-0.33187318,0.84122276
7489780000000,-0.12763166,-0.2205782,-0.035683632,0.0720821,0.03573562,-0.01282817,0.4269667,0.006015931,-0.3311027,0.8414477
7489800000000,-0.22840714,0.02600956,0.051223755,0.060170226,0.024740042,-0.011911872,0.42727125,0.005995266,-0.3302892,0.84161305
7489820000000,-0.20500445,0.1379404,0.017673492,-0.065209866,0.0022907446,-0.019547688,0.4273792,0.005915981,-0.33017594,0.8416032
7489840000000,-0.2298944,0.19526148,-0.05216503,-0.1769982,-0.024587326,0.007483099,0.42742372,0.00552525,-0.3313631,0.84111655
7489860000000,-0.04315257,-0.47854424,-0.060508728,-0.094531395,0.0047342055,0.0106901415,0.4272459,0.004870513,-0.3329502,0.84058404
7489880000000,-0.19833493,-0.24578762,-0.09164524,0.007330383,0.025503624,0.009010263,0.42725995,0.0044610407,-0.3330511,0.8405392
7489900000000,-0.18898726,0.10813284,-0.0045189857,-0.052839845,0.0038179078,0.016340645,0.4272281,0.0042989147,-0.33289564,0.8406177
7489920000000,-0.15396309,0.0067386627,0.00073099136,-0.13988814,-0.010537425,0.032070424,0.4270095,0.0038702483,-0.3337512,0.8403917
7489940000000,-0.14981484,0.053043365,-0.12497854,-0.14340061,-0.0096211275,0.03772093,0.42667398,0.0031330104,-0.3351803,0.83999634
7489960000000,-0.13989949,-0.102482796,-0.094276905,-0.094225965,-0.0061086523,0.05100725,0.426259,0.0024374835,-0.33631012,0.8397576
7489980000000,-0.1352942,-0.5621686,-0.035721302,0.026725354,0.0143553335,0.02443461,0.42585748,0.0021397439,-0.33664444,0.8398282
7490000000000,-0.13355398,-0.33273935,-0.15388203,0.14340061,0.042913284,-0.006872234,0.42595524,0.0022688508,-0.3356467,0.84017766
7490020000000,-0.21149635,0.06857014,-0.043302536,0.123547494,0.031612277,-0.0061086523,0.4261883,0.002592313,-0.3340905,0.8406785
7490040000000,-0.18488932,0.06517506,0.04565811,0.035888333,0.011301007,0.002443461,0.4262627,0.0027663913,-0.3333018,0.84095335
7490060000000,-0.18805766,0.089313984,-0.055691242,-0.045662176,0.00045814895,0.008093964,0.42624384,0.0026534132,-0.33340573,0.84092194
7490080000000,-0.1996665,0.0014872551,-0.050901413,-0.069485925,-0.0056505036,0.023518313,0.42609388,0.002320635,-0.33402845,0.84075195
7490100000000,-0.1563251,-0.24490786,0.0058221817,-0.044135015,0.00045814895,0.016646078,0.42586076,0.001969897,-0.33459336,0.84064615
7490120000000,-0.17448926,-0.24420309,-0.057342052,0.0013744468,0.008857546,0.0076358155,0.4257966,0.001765654,-0.334748,0.8406176
7490140000000,-0.18125606,-0.14345503,-0.076140404,0.025961773,0.008399397,0.0035124752,0.4257875,0.00172966,-0.33450058,0.8407208
7490160000000,-0.2045455,-0.028123379,-0.012517929,0.0027488936,-0.0015271631,0.00290161,0.4257927,0.0017692028,-0.33425492,0.8408158
7490180000000,-0.20526361,0.026593208,-0.0063257217,-0.05390886,-0.02321288,0.005497787,0.42570442,0.0017130597,-0.3345182,0.8407558
7490200000000,-0.20220304,-0.041903973,-0.04586792,-0.077579886,-0.039858956,0.0035124752,0.4255569,0.0016443945,-0.33530763,0.84051627
7490220000000,-0.18855238,-0.19727182,-0.012776375,-0.05971208,-0.04046982,0.00076358154,0.42537898,0.0016451073,-0.33614478,0.84027183
7490240000000,-0.14742088,-0.250731,-0.05850458,-0.00870483,-0.027183503,-0.0056505036,0.42528802,0.0017905347,-0.33656693,0.8401487
7490260000000,-0.14209175,-0.121067524,-0.12010002,0.027947085,-0.009315695,-0.00045814895,0.42527625,0.001996152,-0.33652893,0.84016925
7490280000000,-0.1496079,-0.15552759,-0.107204914,0.07651087,0.008552114,0.0032070426,0.42523354,0.0021719947,-0.33608767,0.8403672
7490300000000,-0.1434493,-0.17917967,-0.05555296,0.093767814,0.019242255,-0.0021380284,0.42528147,0.002408804,-0.33520457,0.8406949
7490320000000,-0.17217445,-0.055099487,-0.040098667,0.07345655,0.015577064,-0.0016798794,0.42537847,0.0026210626,-0.3343538,0.84098387
7490340000000,-0.18227601,-0.008437157,-0.063147545,0.05085453,0.008552114,0.0010690142,0.4254126,0.0027395252,-0.33383086,0.84117395
7490360000000,-0.18539476,-0.136055,-0.048606396,0.05009095,0.0062613687,-0.0021380284,0.42541054,0.0028622043,-0.33338988,0.8413494
7490380000000,-0.13965583,-0.12552357,-0.051199436,0.036651913,0.012980887,-0.009773844,0.42550102,0.0029826376,-0.33298534,0.8414635
7490400000000,-0.18184614,-0.050610065,-0.01473999,0.051159963,0.018478673,-0.003970624,0.42562485,0.0030034191,-0.33258256,0.84156
7490420000000,-0.12991428,-0.19209862,-0.039648533,0.06688975,0.032986723,-0.014966198,0.42573473,0.0030380648,-0.3319925,0.84173733
7490440000000,-0.09287548,-0.33088684,-0.06370878,0.1441642,0.055588737,-0.029474247,0.4260638,0.0031568296,-0.3310117,0.84195673
7490460000000,-0.053994656,-0.35413408,-0.014904976,0.21930063,0.10888673,-0.065209866,0.42671123,0.0034424828,-0.32904738,0.84239745
7490480000000,-0.06506801,0.02028513,-0.039197445,0.22006421,0.1591304,-0.07880162,0.42783114,0.0035420367,-0.3264108,0.84285474
7490500000000,-0.050537825,0.047493935,-0.0012817383,0.11957687,0.18875736,-0.09483683,0.42913297,0.0030698602,-0.32410306,0.8430853
7490520000000,-0.06664586,0.06395674,-0.0042533875,0.02321288,0.21594086,-0.10140363,0.4306408,0.0019400406,-0.3227406,0.8428424
7490540000000,-0.046439886,0.06727219,-0.04248333,-0.04352415,0.2591596,-0.10827587,0.432302,0.00018773713,-0.32184485,0.8423365
7490560000000,-0.10760403,0.07608938,-0.029258251,-0.10934488,0.2790127,-0.09728029,0.43407533,-0.0021534422,-0.32133812,0.841615
7490580000000,-0.11977053,-0.06306648,-0.06732845,-0.12614368,0.29092458,-0.07895433,0.43573856,-0.0048843366,-0.32122624,0.8407865
7490600000000,-0.19546461,-0.121973515,-0.111676216,-0.06872234,0.2843578,-0.0580322,0.43722767,-0.0075861593,-0.32083288,0.8401433
7490620000000,-0.18859076,-0.21229458,-0.1226325,-0.012370021,0.26206118,-0.029626964,0.4384588,-0.009958919,-0.3199305,0.83982104
7490640000000,-0.24137902,-0.13650322,-0.15936804,0.021685716,0.22220223,0.0035124752,0.43932712,-0.011927233,-0.31875116,0.8397899
7490660000000,-0.31483316,0.07457304,-0.11322689,-0.004276057,0.15195273,0.04642576,0.43971804,-0.013524491,-0.31772932,0.8399484
7490680000000,-0.3457408,0.16333294,-0.119997025,-0.07315111,0.06627888,0.079107046,0.43947557,-0.01476323,-0.31754377,0.8401246
7490700000000,-0.3236761,0.2009306,-0.035776615,-0.16249016,-0.016187929,0.10705414,0.4387196,-0.015786543,-0.31847712,0.8401477
7490720000000,-0.2719903,-0.1365428,0.07296038,-0.17928895,-0.0777326,0.11835514,0.43749848,-0.016562566,-0.32033807,0.84006214
7490740000000,-0.2680905,-0.32701588,-0.0014481544,-0.11988231,-0.108123146,0.11362094,0.43615922,-0.016826112,-0.3220456,0.84010047
7490760000000,-0.25708437,-0.2478137,-0.06914616,-0.06994407,-0.14569137,0.09682214,0.43481812,-0.016536934,-0.32332835,0.84030867
7490780000000,-0.20530605,-0.18011951,-0.026679993,0.034208454,-0.17272215,0.07971791,0.43356478,-0.015618083,-0.32432908,0.8405881
7490800000000,-0.20514274,-0.15928125,-0.13103199,0.0050396384,-0.15332718,0.094531395,0.43234763,-0.014222986,-0.32454002,0.8411583
7490820000000,-0.12437868,-0.09690571,-0.10003567,0.03145956,-0.17898351,0.07452556,0.43102854,-0.013124926,-0.32515797,0.8416143
7490840000000,-0.01956129,-0.28185606,0.05018902,0.094989546,-0.14538592,0.086132,0.42987302,-0.011675033,-0.32540753,0.8421299
7490860000000,-0.19447494,-0.036569595,-0.23207855,0.13179417,-0.106595986,0.084146686,0.4287376,-0.01060496,-0.32500783,0.84287703
7490880000000,-0.012138605,-0.22363806,-0.038357258,0.14538592,-0.10308351,0.06704246,0.42782542,-0.009185928,-0.32405275,0.84372437
7490900000000,-0.087180614,-0.25406265,0.040267944,0.1282817,-0.070249505,0.064446285,0.4269829,-0.008057387,-0.32326323,0.8444653
7490920000000,-0.18034887,0.015166283,-0.11820841,0.17821993,-0.05100725,0.057268616,0.42631972,-0.007320294,-0.32234767,0.84515667
7490940000000,-0.089491606,-0.118676186,-0.021455288,0.14782938,-0.03191771,0.04505131,0.42574686,-0.0063482905,-0.3210002,0.8459659
7490960000000,-0.079141855,-0.052689075,-0.09183788,0.103847094,-0.00030543262,0.03359759,0.42539716,-0.0057883873,-0.32001337,0.84651953
7490980000000,-0.044493914,-0.011295319,-0.036883354,0.10903945,0.022907447,0.026419923,0.42519736,-0.0055609895,-0.31902796,0.84699327
7491000000000,-0.14126849,0.011714935,0.018736362,0.057268616,0.030848695,0.022907447,0.42511216,-0.0056009693,-0.3181334,0.8473721
7491020000000,-0.15492916,0.036220074,-0.06453228,-0.02611449,0.027794369,0.01572978,0.4250412,-0.0059015206,-0.31796098,0.8474704
7491040000000,-0.1758709,-0.04925871,-0.035390854,-0.043218717,0.02611449,0.015118915,0.4250082,-0.0063265236,-0.31820267,0.8473932
7491060000000,-0.19895768,-0.20337772,0.00033330917,-0.007330383,0.019700404,-0.003970624,0.42498472,-0.006738135,-0.31834307,0.84734905
7491080000000,-0.20735669,-0.13112736,-0.07147503,0.018325957,0.0076358155,-0.026572637,0.42518717,-0.0068290373,-0.31824976,0.8472818
7491100000000,-0.17647934,-0.20516968,-0.08873749,0.05009095,0.013133603,-0.035888333,0.42547017,-0.006677284,-0.31799728,0.84723574
7491120000000,-0.081279755,-0.29702568,-0.035891533,0.13148874,0.03726278,-0.043218717,0.42592648,-0.0063313986,-0.31708235,0.847352
7491140000000,-0.12614298,-0.09641552,-0.0018000603,0.13194689,0.04184427,-0.025503624,0.42638677,-0.005978868,-0.31554824,0.84769565
7491160000000,-0.19030333,0.18836927,-0.063643456,0.04841107,0.021838432,-0.0010690142,0.42662066,-0.0058674063,-0.3146382,0.847917
7491180000000,-0.17084742,0.035143852,-0.019295692,-0.01572978,0.011453724,0.02443461,0.42653567,-0.0060081715,-0.3145277,0.84799975
7491200000000,-0.17135239,-0.1586752,-0.016891956,-0.030085113,0.003970624,0.018784106,0.42631483,-0.0062945196,-0.3147437,0.8480286
7491220000000,-0.1608808,-0.078440666,-0.06058693,-0.02397646,-0.009010263,0.014966198,0.42618608,-0.0064908713,-0.31500867,0.8479934
7491240000000,-0.14480162,-0.14720726,-0.07668924,0.011759156,-0.0018325958,0.009773844,0.42603454,-0.0065430882,-0.31517732,0.8480065
7491260000000,-0.16339326,-0.11847687,-0.07933283,0.0346666,0.003970624,0.012980887,0.42596984,-0.006469665,-0.31485948,0.84815776
7491280000000,0.0,0.0,0.0,0.014660766,-0.0030543262,0.012217305,0.4258646,-0.0064285086,-0.31460747,0.8483043
7491300000000,-0.14154792,-0.11367369,0.15683126,0.025961773,-0.027488936,0.024587326,0.4256953,-0.006192561,-0.31442317,0.8484595
7491320000000,-0.19353795,-0.007855892,-0.07904863,-0.004886922,-0.020463986,0.016187929,0.42539808,-0.0061250264,-0.31452468,0.84857124
7491340000000,-0.21752977,0.11324358,-0.17308187,-0.05222898,-0.04810564,0.0355829,0.42512354,-0.0060056113,-0.31485638,0.8485867
7491360000000,-0.09189701,-0.254292,0.055503845,-0.05513059,-0.037415497,0.037415497,0.42459148,-0.0059333756,-0.31564352,0.8485613
7491380000000,-0.15044546,-0.12604761,-0.10620022,0.01817324,-0.009162978,0.044745877,0.4241893,-0.006048556,-0.31591853,0.8486592
7491400000000,-0.17287183,0.0017409325,-0.10334492,-0.0010690142,-0.017104227,0.042760566,0.42378193,-0.006069104,-0.31572068,0.848936
7491420000000,-0.13204765,-0.13449192,0.003311634,-0.035888333,-0.021838432,0.029168816,0.42340276,-0.0060752854,-0.31605238,0.84900194
7491440000000,-0.13899279,-0.07846022,-0.05761528,0.00061086525,-0.006872234,0.02443461,0.42314416,-0.0061153746,-0.3162535,0.84905565
7491460000000,-0.1970563,-0.014724731,-0.047534466,-0.025045475,-0.022907447,0.014966198,0.4229282,-0.0061680446,-0.31625485,0.8491622
7491480000000,-0.17124796,0.012205124,-0.025817394,-0.093462385,-0.04795292,0.006872234,0.42273954,-0.0061752596,-0.3169946,0.84898037
7491500000000,-0.20693064,-0.10130739,-0.012741089,-0.0888809,-0.060628377,0.006872234,0.4224777,-0.0061764494,-0.31811956,0.8486898
7491520000000,-0.1947558,-0.13195276,-0.030802727,-0.06429356,-0.0720821,-0.013286319,0.42227706,-0.005929311,-0.31894523,0.8484816
7491540000000,-0.16002202,-0.03256464,-0.006333828,-0.10598512,-0.0917825,-0.01038471,0.42215356,-0.0055496963,-0.31995603,0.84816486
7491560000000,-0.114349365,-0.06695509,-0.04466486,-0.10842858,-0.08384126,-0.0070249503,0.42191344,-0.005261893,-0.32141244,0.84773546
7491580000000,-0.15528536,-0.096119404,-0.021812439,-0.08857546,-0.070554934,0.0070249503,0.42167008,-0.00502454,-0.3224823,0.8474517
7491600000000,-0.14970708,-0.10610962,-0.034553528,-0.09896017,-0.07574729,0.0015271631,0.42135626,-0.004867504,-0.3235308,0.84720904
7491620000000,-0.08719206,-0.13937902,-0.02820015,-0.08857546,-0.065973446,-0.00076358154,0.4211092,-0.0046620425,-0.32473895,0.8468707
7491640000000,-0.08010435,-0.14789009,-0.05558586,-0.050396383,-0.021685716,-0.0061086523,0.42099166,-0.0045941547,-0.3255151,0.84663147
7491660000000,-0.12674618,-0.063863754,-0.04639387,-0.045356743,-0.010537425,-0.01160644,0.42105058,-0.004665508,-0.3258299,0.8464807
7491680000000,-0.12248182,-0.0814991,-0.029354572,-0.068264194,-0.0047342055,-0.019089539,0.42113864,-0.004799715,-0.32635272,0.8462347
7491700000000,-0.12414026,-0.107765675,-0.033033848,-0.059406646,0.0143553335,-0.022449298,0.42132893,-0.0050941813,-0.326946,0.8459092
7491720000000,-0.13234568,-0.04177332,-0.062903404,-0.06246097,0.02031127,-0.029474247,0.4216131,-0.0054521915,-0.3272987,0.84562904
7491740000000,-0.18311858,-0.08068991,2.4795532e-05,-0.09636399,-0.005192355,-0.036193766,0.42193112,-0.00575665,-0.32787272,0.8452459
7491760000000,-0.16816306,-0.098127365,-0.02322054,-0.10644327,-0.010842858,-0.049480084,0.42222494,-0.0060074893,-0.32888222,0.844705
7491780000000,-0.20011997,-0.00038337708,-0.07784891,-0.107665,-0.018020526,-0.04795292,0.4226209,-0.0061999005,-0.32979235,0.8441506
7491800000000,-0.18810105,-0.032868862,-0.037499905,-0.14355333,-0.04230242,-0.049632803,0.42292196,-0.0063205627,-0.33097026,0.8435377
7491820000000,-0.15579891,-0.12254143,-0.0034589767,-0.14340061,-0.05207626,-0.03863723,0.42312643,-0.006401283,-0.33245847,0.842849
7491840000000,-0.18262458,-0.14922428,-0.06492567,-0.102319926,-0.052839845,-0.037415497,0.42321995,-0.0064098914,-0.33378336,0.8422782
7491860000000,-0.121943474,-0.23397732,-0.08839941,-0.048258353,-0.030085113,-0.038179077,0.4233716,-0.0062452466,-0.33458686,0.8418843
7491880000000,-0.15221643,-0.31057978,0.14695501,0.0013744468,-0.038026363,-0.04795292,0.42368892,-0.0059050433,-0.33474025,0.8416661
7491900000000,-0.06012392,-0.1909852,-0.0872488,0.01985312,-0.007941248,-0.06093381,0.42402548,-0.0055055525,-0.33487454,0.841446
7491920000000,-0.08070922,0.036676884,-0.1860776,0.039553523,0.0290161,-0.03023783,0.42450228,-0.0052833264,-0.33450496,0.84135383
7491940000000,-0.058954477,-0.030312538,0.013196945,0.014813482,0.05589417,-0.03436117,0.42485058,-0.0053863674,-0.33391052,0.8414136
7491960000000,-0.13720131,0.19691515,-0.037762642,-0.06383542,0.05757405,-0.025350908,0.4253523,-0.005944346,-0.3338546,0.8411785
7491980000000,-0.17015696,0.074248314,-0.028217316,-0.13591751,0.040775254,-0.030848695,0.42572126,-0.0068107694,-0.3346033,0.84068763
7492000000000,-0.123281956,-0.28959703,-0.063518524,-0.13332134,0.036193766,-0.03634648,0.4260629,-0.0076107844,-0.33583614,0.8400158
7492020000000,-0.04073429,-0.31157875,-0.105118275,-0.027030786,0.075594574,-0.021533,0.42654803,-0.008281561,-0.3363495,0.83955777
7492040000000,-0.09669733,-0.117916584,-0.12195063,0.08384126,0.094225965,0.01038471,0.4269015,-0.008916851,-0.335581,0.83967924
7492060000000,-0.18737411,-0.033650875,-0.035811424,0.076358154,0.08582657,0.009010263,0.42712578,-0.009336633,-0.33429426,0.84007365
7492080000000,-0.13319993,0.05771923,-0.0105443,-0.010079277,0.074830994,0.011301007,0.42727616,-0.009835935,-0.33352587,0.8402969
7492100000000,-0.23248959,0.32933855,0.014538765,-0.21151209,0.044593163,0.004581489,0.4274372,-0.01080696,-0.33406153,0.83999014
7492120000000,-0.13337326,0.09090853,0.100801945,-0.39187005,0.011911872,0.013591751,0.42741343,-0.012496595,-0.33678576,0.83889043
7492140000000,-0.104613304,-0.32250118,0.085095406,-0.38805214,0.01450805,0.024129177,0.42723444,-0.014451034,-0.34033468,0.83751667
7492160000000,-0.1766932,-0.09597111,-0.17168045,-0.24358252,0.012064588,0.049480084,0.42692032,-0.016177375,-0.34306267,0.83653176
7492180000000,-0.2584083,0.21298552,-0.37837648,-0.10216721,0.0022907446,0.044593163,1.0,0.0,0.0,0.0
7492200000000,-0.385684,0.37722874,-0.11867905,-0.18997909,-0.055741455,0.029168816,0.4260651,-0.01748454,-0.34514186,0.83608615
7492220000000,-0.26553154,-0.006547451,-0.010247707,-0.29794952,-0.10323623,-0.00992656,0.4256035,-0.017906928,-0.34772018,0.83524364
7492240000000,-0.1430099,-0.11169863,-0.08808851,-0.29565877,-0.10369437,-0.033444874,0.4253941,-0.018248372,-0.35085845,0.83402956
7492260000000,-0.13674927,-0.41294527,-0.037521362,-0.19746219,-0.10247265,-0.06047566,0.42528644,-0.018423088,-0.3535944,0.83292437
7492280000000,0.0,0.0,0.0,-0.025961773,-0.064446285,-0.08002335,0.4256574,-0.017901398,-0.35487956,0.8321994
7492300000000,-0.027595758,-0.50312805,-0.0062737465,0.112399206,-0.03145956,-0.07192938,0.42612168,-0.016994458,-0.354542,0.83212465
7492320000000,-0.12613678,-0.20744991,0.039996624,0.14309518,-0.025809057,-0.066737026,0.42666808,-0.015882455,-0.3532798,0.8324035
7492340000000,-0.16541433,-0.0713439,-0.050255775,0.07696902,-0.03940081,-0.037110064,0.42699885,-0.0149549125,-0.3525251,0.83257097
7492360000000,-0.08957553,0.22374249,-0.12216139,0.039553523,-0.035277467,0.020005837,0.42698598,-0.014383683,-0.35227546,0.8326934
7492380000000,-0.06445408,-0.24700451,-0.024365425,0.053450707,-0.017104227,0.044898596,0.42646834,-0.014148923,-0.3520549,0.83305585
7492400000000,-0.091846466,-0.15838242,-0.023439884,0.056505036,-0.015271631,0.032528576,0.42613617,-0.01397406,-0.3515864,0.83342654
7492420000000,-0.14900184,0.09200239,-0.14009476,0.02443461,-0.011759156,0.018325957,0.42583278,-0.013744603,-0.35127312,0.83371747
7492440000000,0.0,0.0,0.0,-0.098043874,-0.023823744,0.025350908,0.42567042,-0.013831981,-0.35153225,0.8336897
7492460000000,-0.1596489,0.09504604,0.029174328,-0.21044308,-0.056505036,0.028405234,0.42526308,-0.014320243,-0.35312116,0.83321774
7492480000000,-0.14224458,-0.057320118,-0.01712799,-0.20555615,-0.058184914,0.035124753,0.42474833,-0.014882563,-0.35531595,0.8325371
7492500000000,-0.1071136,-0.09091139,-0.048461437,-0.16126843,-0.04352415,0.052687127,0.424151,-0.015444487,-0.3570555,0.8320871
7492520000000,-0.12561679,-0.2288723,-0.07543421,-0.103847094,-0.03145956,0.03680463,0.42358413,-0.015909212,-0.3583092,0.831828
7492540000000,-0.14640188,-0.3111024,-0.069693565,-0.027183503,-0.01740966,0.0062613687,1.0,0.0,0.0,0.0
7492560000000,-0.1018765,-0.25818682,-0.1054163,0.07238753,0.011301007,-0.02397646,0.42338166,-0.015918493,-0.3587743,0.8317305
7492580000000,-0.10930371,-0.13943958,-0.080631256,0.122478485,0.03145956,-0.033292156,0.42376128,-0.015551335,-0.35770014,0.8320067
7492600000000,-0.07618284,0.052029133,-0.08500385,0.09773844,0.040775254,-0.040775254,0.42424288,-0.015230212,-0.356507,0.8322793
7492620000000,-0.15563345,0.32158995,-0.0047454834,-0.009773844,0.032223143,-0.047647487,0.42475277,-0.015183195,-0.35585335,0.83229995
7492640000000,0.0,0.0,0.0,-0.15317446,-0.013744468,-0.09605856,0.42530942,-0.015491951,-0.35657117,0.8317024
7492660000000,-0.1176157,-0.5170946,0.079431534,-0.12568553,-0.02443461,-0.1704314,0.42633116,-0.015499341,-0.3582426,0.83046
7492680000000,-0.024050951,-0.6255169,-0.23188114,0.087659165,0.04428773,-0.22036964,0.42798865,-0.014978731,-0.3586617,0.8294355
7492700000000,-0.053447485,-0.13150549,-0.26100206,0.26160303,0.10064005,-0.21242839,0.4302254,-0.013979635,-0.3565862,0.82919055
7492720000000,-0.051423073,-0.42152023,-0.12959433,0.3837761,0.13790283,-0.20769419,0.4323615,-0.012809226,-0.35333627,0.82948965
7492740000000,-0.028076887,-0.24535227,-0.22986412,0.5109888,0.19822577,-0.19135354,0.43474394,-0.011598755,-0.34893698,0.8301242
7492760000000,-0.0646193,-0.13655663,-0.1359663,0.6082691,0.23991732,-0.13958271,0.43692443,-0.010377637,-0.3431283,0.8314159
7492780000000,-0.13980293,-0.14227867,0.038099766,0.5467244,0.23075435,-0.13881913,0.43888375,-0.009376447,-0.33698812,0.8329059
7492800000000,-0.21454597,0.068841934,0.063017845,0.41050145,0.16554448,-0.15347989,0.4408416,-0.008465897,-0.33210242,0.8338436
7492820000000,-0.17193389,0.12878847,0.032004356,0.28420505,0.12629639,-0.13347405,0.44257808,-0.0076379334,-0.3287457,0.8342617
7492840000000,-0.17963147,0.16507864,-0.030072689,0.15317446,0.110413894,-0.094531395,0.4438803,-0.0073043504,-0.32647437,0.8344648
7492860000000,-0.06708574,0.17914581,-0.16767788,0.0,0.0,0.0,0.44485635,-0.007502672,-0.32517868,0.8344492
7492880000000,-0.05048871,-0.2165165,-0.055079937,0.11530081,0.13881913,0.0096211275,0.44528058,-0.008172358,-0.3240116,0.83467066
7492900000000,-0.069701195,-0.45996237,-0.042287827,0.25289822,0.17806722,0.026419923,0.44562915,-0.008806389,-0.32181028,0.8353295
7492920000000,-0.07633901,-0.1513362,-0.09440136,0.3034473,0.18875736,0.049632803,0.4459588,-0.009182094,-0.31835392,0.8364731
7492940000000,-0.11862278,0.091750145,-0.07541895,0.26450464,0.17119499,0.07376198,0.44601384,-0.009623569,-0.31510392,0.8376686
7492960000000,-0.10965896,-0.12678623,0.07710838,0.20769419,0.16126843,0.067500606,1.0,0.0,0.0,0.0
7492980000000,-0.17213035,0.018412113,-0.043524265,0.14065172,0.14721853,0.05177083,0.44593355,-0.010900421,-0.3102372,0.8395102
7493000000000,-0.12780428,0.057388306,-0.12619972,0.10903945,0.12675454,0.058948494,0.4459209,-0.011737357,-0.3087534,0.8400525
7493020000000,-0.19442534,-0.27748394,0.01580429,0.16050485,0.109650314,0.03756821,0.44581097,-0.012361125,-0.30720574,0.8406691
7493040000000,-0.22925854,-0.2025528,-0.00507164,0.18371773,0.08750644,-0.01695151,0.44604576,-0.012406322,-0.3051395,0.8412961
7493060000000,-0.15350008,0.03932333,-0.09399223,0.1516473,0.06154467,-0.03772093,0.44662073,-0.012150233,-0.3033911,0.8416271
7493080000000,-0.12719631,-0.11960268,-0.10799503,0.16493362,0.061850104,-0.028405234,0.4470919,-0.011892744,-0.30195606,0.8418966
7493100000000,-0.15167522,-0.09685135,-0.05253601,0.18906279,0.06154467,-0.022296581,0.4475283,-0.011574029,-0.3000887,0.84233683
7493120000000,-0.15965772,-0.030653954,-0.017118454,0.17455475,0.03176499,-0.012675454,1.0,0.0,0.0,0.0
7493140000000,-0.14797878,0.021903038,0.011738777,0.13316862,0.013591751,-0.008093964,0.44799423,-0.010542901,-0.29684317,0.8432521
7493160000000,-0.18650293,0.2274332,0.03556347,0.019547688,-0.008246681,0.017256944,0.44799405,-0.010215733,-0.29609275,0.8435201
7493180000000,-0.14233136,0.20386124,-0.06814957,-0.112704635,-0.030085113,0.034208454,0.4476726,-0.0103716,-0.29668045,0.84348226
7493200000000,-0.10414696,0.010468006,-0.08831406,-0.15332718,-0.029474247,0.049480084,0.44719598,-0.010943465,-0.29819566,0.8431936
7493220000000,-0.11462808,-0.3659196,0.05818367,-0.07696902,-0.017715093,0.03604105,0.44666913,-0.011475078,-0.29938442,0.8430446
7493240000000,-0.121901274,-0.24902058,0.08607006,-0.067500606,-0.013286319,0.00076358154,0.44650546,-0.011649514,-0.29983318,0.84296924
7493260000000,-0.11336875,0.017036915,-0.13467216,-0.12232576,-0.021533,0.0062613687,1.0,0.0,0.0,0.0
7493280000000,-0.14180565,-0.14271164,0.025914192,-0.15195273,-0.020158553,0.036957346,0.44622514,-0.012403981,-0.30201557,0.8423278
7493300000000,-0.14637923,-0.23197794,0.0019130707,-0.112399206,-0.011911872,0.028252518,0.44581163,-0.013082487,-0.30331153,0.8420707
7493320000000,0.026104689,-0.24527884,0.0804472,-0.0870483,0.011453724,-0.015271631,0.4456437,-0.013452534,-0.30404717,0.8418885
7493340000000,0.042407036,-0.41634464,0.116155624,-0.07742717,0.058490347,-0.063682705,0.44623736,-0.014008068,-0.3046586,0.8413437
7493360000000,0.0456295,-0.20477057,0.045698166,0.0,0.0,0.0,0.44698563,-0.01484549,-0.30474126,0.84090203
7493380000000,-0.0050542355,0.13020897,-0.29854107,-0.015882496,0.15577064,0.01450805,0.44729617,-0.016125945,-0.30434677,0.84085625
7493400000000,-0.13761902,0.7751117,-0.4644432,-0.084910266,0.19028452,0.064446285,0.44754314,-0.017881967,-0.30378425,0.84089273
7493420000000,-0.32301426,0.9990287,-0.36888027,-0.22983804,0.16920967,0.08353582,0.4473925,-0.020473937,-0.3042368,0.84075004
7493440000000,-0.42566156,0.17116404,-0.20846844,-0.24846944,0.1160644,0.033750303,0.44711658,-0.023136983,-0.30597034,0.84019864
7493460000000,-0.31060314,-0.5124173,-0.10647488,-0.06811147,0.06963864,-0.06704246,1.0,0.0,0.0,0.0
7493480000000,-0.26480818,-0.5887737,0.0067682266,0.1375974,0.01863139,-0.13729197,0.4486101,-0.024489835,-0.30646935,0.83918166
7493500000000,-0.27286625,-0.3463912,0.09059906,0.19226983,-0.059864793,-0.14156802,0.4498454,-0.023015087,-0.30496773,0.8391091
7493520000000,-0.17384386,-0.30891752,0.21331501,0.182496,-0.10552697,-0.13515393,0.45085394,-0.02084876,-0.30366564,0.8390967
7493540000000,-0.07151413,0.008118153,0.122938156,0.077579886,-0.11575896,-0.09132435,0.45149896,-0.0189254,-0.3030085,0.83903307
7493560000000,-0.10949874,0.16073036,0.036190987,-0.075594574,-0.1330159,0.0012217305,0.45148906,-0.017785776,-0.30364096,0.83883464
7493580000000,-0.076695204,-0.07443428,-0.05333042,-0.14126259,-0.1282817,0.029626964,0.45077792,-0.017399134,-0.30539414,0.8385887
7493600000000,-0.032375574,-0.4232564,-0.045344353,-0.05665775,-0.10262536,0.063682705,0.44993043,-0.017116768,-0.30699772,0.83846414
7493620000000,-0.109503984,-0.38549137,-0.1291666,0.092240654,-0.07544186,0.08200866,0.44908303,-0.016601557,-0.30721658,0.8388486
7493640000000,-0.11220813,-0.38613367,0.0009441376,0.19990565,-0.065209866,0.0804815,0.4481558,-0.01556253,-0.30608204,0.8397786
7493660000000,-0.17293,-0.1268487,-0.07694912,0.23105977,-0.06918049,0.064599,0.44738492,-0.014250071,-0.30440918,0.84082025
7493680000000,-0.11340213,-0.10972214,0.059534073,0.21288654,-0.08323039,0.04718934,0.4467061,-0.012759081,-0.30281267,0.84178114
7493700000000,-0.15909767,0.07926464,0.031511307,0.14645495,-0.09468412,0.021685716,0.44620407,-0.011298733,-0.30160546,0.8425013
7493720000000,-0.15148377,0.23670816,-0.065793514,0.03390302,-0.10934488,0.009162978,0.44579425,-0.010062885,-0.30129015,0.8428466
7493740000000,-0.10871649,0.23900843,-0.05384636,-0.09315695,-0.11728613,0.0030543262,0.44541964,-0.009260702,-0.30210987,0.84276056
7493760000000,-0.088306904,0.15873384,-0.045479774,-0.17638734,-0.101556346,0.01038471,0.4450255,-0.00900551,-0.30390134,0.84232724
7493780000000,-0.057314634,-0.051632404,-0.03025055,-0.17638734,-0.0711658,0.015271631,0.44462582,-0.009201108,-0.30590892,0.8418094
7493800000000,-0.030698538,-0.2238636,-0.06768131,0.0,0.0,0.0,0.44433132,-0.009520794,-0.30746683,0.8413936
7493820000000,-0.0971086,-0.18110323,-0.09653187,-0.05375614,-0.011148291,-0.00015271631,0.44423497,-0.009784676,-0.30828318,0.8411427
7493840000000,-0.1043303,-0.20037317,-0.016560078,-0.010231993,0.00045814895,-0.006414085,0.44424844,-0.0098709185,-0.30846587,0.8410676
7493860000000,-0.13790059,-0.120064735,-0.045847893,0.007483099,0.00030543262,-0.012675454,0.44434905,-0.009879771,-0.3084402,0.8410238
7493880000000,0.0,0.0,0.0,0.0096211275,0.00030543262,-0.0050396384,0.4444489,-0.0097908825,-0.30829182,0.84102637
7493900000000,-0.17889857,0.05670023,-0.013867378,-0.04062254,-0.018478673,-0.0032070426,0.44444862,-0.0097899735,-0.30837974,0.8409945
7493920000000,-0.12569022,0.04973936,0.0031542778,-0.0936151,-0.033292156,0.0022907446,0.4443588,-0.009868305,-0.30911797,0.84076995
7493940000000,-0.13806605,-0.07416105,-0.053545475,-0.093462385,-0.031612277,-0.00045814895,0.44421023,-0.010100292,-0.31018317,0.8404534
7493960000000,-0.1111505,-0.13917589,-0.0023093224,-0.06658431,-0.025503624,-0.02443461,0.44418657,-0.010183555,-0.3109404,0.840185
7493980000000,-0.11650801,0.06618738,0.020590782,-0.12660182,-0.031154128,-0.049785517,0.44446245,-0.0101995375,-0.31168884,0.8397614
7494000000000,-0.1386013,-0.018102169,-0.09880018,-0.14630222,-0.03268129,-0.046883907,0.44475564,-0.010496451,-0.31327438,0.83901215
7494020000000,-0.028738499,-0.5310173,-0.063286304,-0.01695151,0.014813482,-0.04520403,0.4450624,-0.0106091965,-0.31412786,0.83852893
7494040000000,-0.02271223,-0.19863844,-0.13147688,0.07452556,0.06001751,-0.048563786,0.4456392,-0.010636228,-0.3135185,0.8384503
7494060000000,-0.05041623,-0.022208214,0.018011093,0.065973446,0.06780604,-0.031154128,1.0,0.0,0.0,0.0
7494080000000,-0.09998798,-0.20483351,-0.023097038,0.08307768,0.0888809,-0.027030786,0.4466751,-0.011020717,-0.3116508,0.8385904
7494100000000,-0.054276705,-0.14186382,-0.084495544,0.12705997,0.112704635,-0.0012217305,0.447139,-0.011364289,-0.31025726,0.83885527
7494120000000,-0.078687906,-0.059709072,-0.03315687,0.12293663,0.11942416,0.031154128,0.44738632,-0.011850013,-0.30861798,0.8393212
7494140000000,-0.119525194,0.016685009,-0.03756571,0.10751228,0.12721269,0.044745877,0.44740823,-0.012502717,-0.30707195,0.8398669
7494160000000,-0.14860249,0.12872505,-0.03902626,0.043066,0.112399206,0.050396383,0.4474091,-0.013344265,-0.30577737,0.84032565
7494180000000,-0.14150119,-0.01640129,-0.0718832,-0.004428773,0.08078693,0.04627304,0.44725913,-0.014291747,-0.30531752,0.8405572
7494200000000,-0.17278051,-0.12935257,-0.07988119,0.019547688,0.07269296,0.03436117,0.44713816,-0.015065468,-0.3050322,0.84071153
7494220000000,-0.17761326,0.016763687,-0.05729437,0.016187929,0.061850104,0.025350908,0.44711965,-0.015616425,-0.30444416,0.8409244
7494240000000,-0.14613128,-0.08938789,0.010545731,0.0009162979,0.040927973,0.0056505036,0.44710764,-0.01611687,-0.30421367,0.8410048
7494260000000,-0.105195284,-0.22461128,-0.011969566,0.025045475,0.043066,-0.032528576,0.44737437,-0.016359122,-0.30399635,0.84093684
7494280000000,-0.06486535,-0.054584026,-0.10906267,0.07315111,0.05589417,-0.014813482,0.44780096,-0.016434038,-0.30333,0.840949
7494300000000,-0.11252308,0.0506835,-0.047330856,0.03176499,0.053450707,0.0050396384,0.44801486,-0.016628891,-0.30245864,0.84114516
7494320000000,-0.14861584,0.10407448,-0.026753426,-0.041996986,0.026419923,0.021227567,0.44801438,-0.017073823,-0.30233848,0.8411796
7494340000000,-0.15332508,0.046224594,-0.06113243,-0.08109236,0.014049901,0.034208454,0.44780248,-0.017635755,-0.30287597,0.8410876
7494360000000,-0.17267919,-0.02093172,-0.06354332,-0.08002335,-0.00076358154,0.025045475,0.44751194,-0.018209908,-0.3035536,0.8409856
7494380000000,-0.14908671,-0.11573887,-0.009382248,0.0,0.0,0.0,0.44731534,-0.018539399,-0.30427587,0.84082186
7494400000000,-0.15153718,-0.1483922,-0.0741663,-0.05222898,-0.027488936,0.007330383,0.44713992,-0.018676162,-0.30500802,0.84064686
7494420000000,-0.10876179,-0.08766699,-0.044131756,-0.02611449,-0.028405234,0.0053450707,0.4470027,-0.01861563,-0.30538005,0.8405861
7494440000000,-0.13116789,0.016629696,0.010333061,-0.0664316,-0.036651913,0.0015271631,0.44688174,-0.018557485,-0.30581883,0.84049237
7494460000000,-0.12886477,-0.055922985,-0.0345006,-0.0664316,-0.03436117,0.0015271631,0.44671834,-0.018614193,-0.30666927,0.84026796
7494480000000,-0.11941552,-0.13611555,-0.024111748,-0.027947085,-0.028099801,-0.01038471,0.44664472,-0.018584779,-0.30718875,0.840118
7494500000000,-0.07531738,-0.0712347,-0.03687811,-0.02443461,-0.024892759,-0.018936822,0.44669974,-0.018411037,-0.3074785,0.8399866
7494520000000,-0.07286072,-0.07890177,-0.07040405,-0.019242255,-0.007788532,-0.014966198,0.44680005,-0.018324656,-0.30775386,0.8398343
7494540000000,-0.10954189,-0.029466629,-0.05092907,-0.024281893,0.0027488936,-0.0047342055,0.44688427,-0.018385824,-0.30788466,0.8397401
7494560000000,0.0,0.0,0.0,-0.05100725,-0.0010690142,-0.0012217305,0.4468986,-0.018591022,-0.30816227,0.83962613
7494580000000,-0.13657951,0.00043535233,-0.037364006,-0.07391469,-0.0053450707,0.0035124752,0.44686407,-0.018872935,-0.3087462,0.8394238
7494600000000,0.0,0.0,0.0,-0.044898596,-0.010231993,-0.0013744468,0.44680092,-0.019176623,-0.3093668,0.8392219
7494620000000,-0.093921185,-0.2336812,-0.03544712,-0.028710667,-0.009162978,-0.011759156,0.44678575,-0.019206243,-0.30969283,0.839109
7494640000000,-0.13174105,-0.056913853,-0.09336567,-0.008399397,-0.009162978,-0.006414085,0.44688818,-0.019164145,-0.30983672,0.8390024
7494660000000,-0.13321877,-0.075731754,-0.038940907,0.008246681,-0.010842858,-0.0067195175,0.4468854,-0.019127011,-0.30990773,0.83897847
7494680000000,-0.10877347,-0.07111597,-0.053483963,0.014660766,-0.013897184,-0.0106901415,0.4469277,-0.018931454,-0.3098132,0.83899534
7494700000000,-0.09837079,-0.023936272,-0.026105404,-0.015577064,-0.017256944,-0.009010263,0.44696507,-0.018758643,-0.3098461,0.838967
7494720000000,-0.10561895,-0.0027046204,-0.059155464,0.0,0.0,0.0,0.44696456,-0.018710395,-0.31011623,0.83886874
7494740000000,-0.11861944,-0.027432442,-0.057904243,-0.024892759,-0.008246681,0.0009162979,0.44693005,-0.01876062,-0.31033504,0.8388049
7494760000000,-0.0971539,-0.062340736,-0.02434349,-0.036957346,-0.009773844,-0.0009162979,0.44689387,-0.018861787,-0.3106454,0.83870715
7494780000000,-0.079470396,-0.12896585,-0.049011707,-0.02611449,0.0018325958,-0.00290161,0.44687966,-0.01897291,-0.31097075,0.8385916
7494800000000,-0.17277217,-0.09667921,-0.052148342,0.001985312,0.00290161,-0.0062613687,0.4469249,-0.019097209,-0.3110425,0.83853805
7494820000000,-0.10781431,-0.06634283,-0.028960228,0.007330383,-0.0013744468,-0.00992656,0.4470081,-0.0190475,-0.31094554,0.8385308
7494840000000,-0.12631631,-0.04900074,-0.033316612,0.011148291,-0.005497787,-0.0062613687,0.44706994,-0.018988466,-0.31089878,0.83851653
7494860000000,-0.11002493,-0.08248472,-0.038497925,0.012217305,-0.007788532,-0.014660766,0.44711888,-0.01883958,-0.310795,0.83853215
7494880000000,-0.09624386,-0.027319431,-0.03489828,-0.01038471,-0.015118915,-0.006872234,0.44720522,-0.018706074,-0.31080243,0.8384864
7494900000000,-0.120446205,-0.08509159,-0.059098244,0.0013744468,-0.01282817,-0.0032070426,0.44718248,-0.018652406,-0.31101948,0.8384193
7494920000000,-0.16425633,-0.09799862,-0.04442978,0.02611449,-0.009773844,0.0025961774,0.44714385,-0.018524691,-0.31090376,0.83848566
7494940000000,-0.11607885,-0.09957266,-0.039974213,0.029626964,-0.01817324,-0.0067195175,0.44711086,-0.018298244,-0.3106958,0.8385852
7494960000000,-0.10331774,-0.07746029,-0.04288864,0.027030786,-0.01863139,-0.0015271631,0.447109,-0.017986558,-0.3105517,0.83864635
7494980000000,-0.12076807,-0.05008459,-0.04498434,0.046578474,-0.010995574,-0.0018325958,0.44706142,-0.017748851,-0.31033242,0.838758
7495000000000,-0.12816334,0.0017271042,-0.042711258,0.02565634,-0.015577064,-0.0,0.44705215,-0.017445365,-0.3099746,0.83890146
7495020000000,-0.102526665,0.012891769,-0.06434536,-0.015577064,-0.01817324,0.00290161,0.44698113,-0.017306607,-0.31006023,0.8389107
7495040000000,-0.068241835,-0.077123165,-0.051059246,-0.007941248,-0.0036651916,0.004886922,0.4468985,-0.01731002,-0.3102844,0.8388718
7495060000000,-0.08546162,-0.11538935,-0.026186466,0.007330383,0.0125227375,0.004581489,0.446881,-0.01740424,-0.31023005,0.83889914
7495080000000,-0.08059311,-0.07801008,-0.067269325,0.010231993,0.017715093,0.0032070426,0.44690487,-0.017518988,-0.31006888,0.8389437
7495100000000,-0.07988691,-0.071864605,-0.06270456,0.028252518,0.026572637,0.005497787,0.44692555,-0.017674355,-0.30985627,0.8390079
7495120000000,-0.13099241,-0.0742712,-0.01870346,0.021685716,0.027183503,0.009010263,0.4469553,-0.01780713,-0.30942345,0.83914906
7495140000000,-0.16286731,0.011780262,0.020524502,-0.01740966,0.0033597588,0.008857546,0.44695222,-0.017984442,-0.30923146,0.83921754
7495160000000,-0.100521326,0.021182537,-0.1481142,-0.040317107,-0.0056505036,0.0018325958,0.44687566,-0.01818476,-0.30967668,0.83909
7495180000000,-0.12895894,-0.19351625,-0.012999058,-0.012370021,-0.00870483,0.00290161,0.44679353,-0.018248772,-0.30993697,0.8390361
7495200000000,-0.12285304,-0.15982151,-0.018076897,0.011148291,-0.0125227375,-0.00992656,0.44680637,-0.018156005,-0.30994517,0.8390284
7495220000000,-0.10307121,0.026999474,-0.084282875,-0.0025961774,-0.014813482,-0.0015271631,0.4468357,-0.017984701,-0.30994752,0.83901554
7495240000000,0.0,0.0,0.0,-0.017104227,-0.018020526,0.0016798794,0.44677594,-0.017935058,-0.3101016,0.83899146
7495260000000,-0.12499523,-0.020865917,-0.0064492226,-0.03604105,-0.021838432,0.001985312,0.44668245,-0.017879331,-0.31038308,0.83893836
7495280000000,-0.074472666,-0.00037145615,-0.042537212,-0.064751714,-0.02107485,0.005192355,0.44657797,-0.01793704,-0.3109161,0.8387953
7495300000000,-0.09329033,-0.06330824,-0.073483944,-0.050549097,-0.015271631,0.0018325958,0.4464599,-0.01813423,-0.31159493,0.838602
7495320000000,-0.099000454,-0.14432287,-0.010466099,-0.019394971,-0.00580322,-0.0022907446,0.44643196,-0.018210009,-0.3119109,0.83849776
7495340000000,-0.114985466,-0.01473093,-0.042679787,-0.025350908,-0.0025961774,-0.004276057,0.44646612,-0.018239392,-0.3120128,0.838441
7495360000000,-0.09881854,0.017309189,-0.07352686,-0.03772093,-0.0070249503,-0.001985312,0.44646966,-0.018361023,-0.31232718,0.8383194
7495380000000,-0.086975574,-0.10496998,-0.03223324,-0.02565634,-0.0033597588,0.004428773,0.44642687,-0.01847321,-0.31265888,0.8382161
7495400000000,-0.06302333,-0.07263327,-0.07319403,-0.015882496,0.008093964,0.0061086523,0.44638398,-0.01863159,-0.31280944,0.8381793
7495420000000,-0.08401108,-0.031026363,-0.06147957,-0.025045475,0.010079277,0.009315695,0.44635633,-0.018818457,-0.3128815,0.83816296
7495440000000,-0.12177014,-0.027774334,-0.0637393,-0.032070424,0.011148291,0.010231993,0.44628364,-0.019102748,-0.31309053,0.8381172
7495460000000,-0.09127498,-0.06800842,-0.037457466,-0.022296581,0.0015271631,0.0106901415,0.4461586,-0.019566683,-0.31352738,0.8380098
7495480000000,-0.121880054,-0.123019695,-0.03858471,0.004886922,0.003970624,0.013286319,0.44605824,-0.0196906,-0.31359634,0.83803445
7495500000000,-0.10179281,-0.06986904,-0.04647112,0.014966198,0.004581489,0.014966198,0.4459549,-0.019710274,-0.3134124,0.83815783
7495520000000,-0.10555482,0.03542614,-0.05646658,-0.0076358155,0.0027488936,0.023823744,0.44581732,-0.019779887,-0.31332654,0.8382615
7495540000000,-0.08179045,-0.021840096,-0.024868965,-0.016493361,-0.00015271631,0.028863383,0.44558007,-0.019991983,-0.31348097,0.83832484
7495560000000,-0.11673093,-0.13434601,-0.024678707,-0.007330383,-0.0035124752,0.021227567,0.44534832,-0.020122072,-0.31358048,0.8384076
7495580000000,-0.09127855,-0.10176182,-0.06899786,0.0062613687,-0.0070249503,0.013744468,0.4451899,-0.020154048,-0.313626,0.838474
7495600000000,-0.09651661,-0.15641117,-0.08201027,0.04260785,0.00045814895,0.0056505036,0.4450905,-0.02006469,-0.31347188,0.8385865
7495620000000,-0.10525966,-0.07086706,0.05104351,0.064446285,-0.0050396384,0.003970624,0.44510767,-0.01982246,-0.31290504,0.8387948
7495640000000,-0.09867549,0.034992695,-0.04268551,0.01740966,-0.011148291,0.007330383,0.44501764,-0.019570952,-0.31256533,0.83897513
7495660000000,-0.13337755,0.07008314,-0.0868454,-0.029168816,-0.021838432,0.021991149,0.44485328,-0.019510932,-0.3127091,0.8390101
7495680000000,-0.117142916,-0.16879654,-0.045170784,0.0041233404,-0.018325957,0.0290161,0.44454187,-0.019560639,-0.31309307,0.8390308
7495700000000,-0.10519719,-0.35792112,-0.112493515,0.122478485,0.008093964,0.039858956,0.444208,-0.019444438,-0.31272396,0.8393479
7495720000000,-0.1055491,-0.5112109,-0.089012146,0.2848159,0.022449298,0.015118915,0.44404873,-0.018803934,-0.3108536,0.84014124
7495740000000,-0.15571499,-0.3467741,0.054262638,0.37614027,0.005497787,-0.00015271631,0.44414172,-0.017389495,-0.30772677,0.8412729
7495760000000,-0.21611667,0.18441391,0.043432236,0.30573806,-0.0364992,-0.008246681,0.44422632,-0.01562543,-0.3046475,0.84238285
7495780000000,-0.14753151,0.2830248,-0.056777954,0.15393804,-0.07086037,0.0018325958,0.44411033,-0.014113995,-0.3030059,0.8430624
7495800000000,-0.05879736,-0.04488039,-0.023234367,0.084910266,-0.07422013,0.004428773,0.44384855,-0.013060727,-0.30261186,0.84335876
7495820000000,-0.04046178,-0.25107813,-0.1213274,0.16233744,-0.038179077,0.013744468,0.44360948,-0.0121544795,-0.30209333,0.8436839
7495840000000,-0.021367788,-0.23193407,-0.11424255,0.26465738,-0.0012217305,0.028099801,1.0,0.0,0.0,0.0
7495860000000,-0.039348364,-0.06242037,0.027446747,0.23839016,0.005497787,0.01450805,0.44325393,-0.010041786,-0.29784644,0.8454069
7495880000000,-0.08986354,0.19165945,-0.07654381,0.16875152,-0.00076358154,0.04550946,0.44308278,-0.009269783,-0.29614517,0.8461028
7495900000000,-0.099251986,-0.18831873,-0.07252216,0.22434026,0.008399397,0.061850104,0.44259718,-0.0087829605,-0.2947993,0.84683174
7495920000000,-0.08243036,-0.5782547,0.029531479,0.40286562,0.017715093,0.030848695,1.0,0.0,0.0,0.0
7495940000000,-0.15688539,-0.12532043,0.010446548,0.42149702,-0.00076358154,0.028252518,0.4421452,-0.0058332426,-0.2880284,0.8494195
7495960000000,-0.11580515,0.49819708,0.046628,0.24312437,-0.045356743,0.06307184,0.44161522,-0.0043013785,-0.28523397,0.85064626
7495980000000,-0.19217563,0.14919615,0.01615715,0.11026118,-0.08017606,0.037415497,0.44094145,-0.0032001457,-0.28422138,0.8513393
7496000000000,-0.13242197,0.06525326,-0.09408188,0.040927973,-0.086437434,0.009010263,0.44057035,-0.0022460225,-0.28413934,0.85156184
7496020000000,-0.023359776,-0.0813303,-0.13801765,0.05131268,-0.054061573,0.01572978,0.44028425,-0.0014793245,-0.28419092,0.8516943
7496040000000,-0.03036213,-0.09559584,-0.12136936,0.0729984,-0.020005837,0.019547688,0.4400385,-0.0010094288,-0.28380018,0.8519522
7496060000000,-0.057748556,0.033818245,-0.00079345703,0.06536258,-0.013286319,0.01740966,0.43983328,-0.00064012373,-0.28316262,0.85227066
7496080000000,-0.108664036,0.26941442,-0.04022503,0.0,0.0,0.0,0.439707,-0.000369245,-0.2828836,0.8524286
7496100000000,-0.058207512,0.20660925,-0.1568203,-0.03634648,-0.008857546,0.059864793,0.43915492,-0.0004886421,-0.28323707,0.8525958
7496120000000,-0.1380024,-0.07399273,-0.028513908,-0.046578474,-0.010079277,0.044593163,0.4388046,-0.00082751096,-0.2836051,0.85265356
7496140000000,-0.07795811,-0.1755867,0.013307571,0.0,0.0,0.0,0.43837968,-0.001016348,-0.28410566,0.85270536
7496160000000,-0.14421129,-0.006646633,-0.07274914,-0.037873644,-0.020463986,-0.00030543262,0.43839502,-0.0009791474,-0.28449178,0.8525686
7496180000000,-0.12348747,0.098519325,-0.034516335,-0.0580322,-0.03481932,0.0106901415,0.43829906,-0.0010002163,-0.28497964,0.852455
7496200000000,-0.09876323,-0.0810442,0.005862236,-0.071013086,-0.044745877,0.021991149,0.4380563,-0.0009960671,-0.2857337,0.8523274
7496220000000,0.0,0.0,0.0,-0.08093964,-0.047036625,0.047800206,0.43748784,-0.0010797435,-0.28657138,0.8523381
7496240000000,-0.11642122,0.02898693,-0.0049009323,-0.12232576,-0.052381694,0.052534413,0.43698862,-0.0012151748,-0.28758958,0.852251
7496260000000,-0.054229736,-0.019606113,-0.0055742264,-0.16737708,-0.04016439,0.0421497,0.43641347,-0.0016175638,-0.28910387,0.8520327
7496280000000,-0.09188795,-0.034388542,-0.048853874,-0.17119499,-0.031001411,0.04642576,0.43594512,-0.0022448245,-0.29074016,0.85171413
7496300000000,-0.083418846,-0.0050644875,-0.061750412,-0.1769982,-0.028710667,0.042455133,0.43548167,-0.0028883128,-0.29233244,0.8514043
7496320000000,-0.0786953,-0.029623508,0.03509617,-0.17104226,-0.030390546,0.051465396,0.43501496,-0.003543324,-0.2939467,0.85108453
7496340000000,-0.0561769,-0.25517702,-0.061439514,-0.10980303,-0.008093964,0.03283401,0.43452758,-0.0042095515,-0.2953818,0.85083354
7496360000000,-0.09809041,-0.239604,-0.03000164,-0.047036625,0.0030543262,0.014660766,0.43434027,-0.004581078,-0.29591772,0.85074097
7496380000000,-0.07194638,-0.108115196,-0.015796661,-0.023365596,0.0070249503,0.005192355,0.43430573,-0.0047665588,-0.2961153,0.85068893
7496400000000,-0.103928804,0.021905899,-0.08785534,-0.01695151,0.011911872,0.010995574,0.434295,-0.004965117,-0.29619235,0.85066646
7496420000000,-0.09671235,0.088973045,-0.04595852,-0.05955936,-0.00045814895,0.013744468,0.4342114,-0.005231841,-0.2964259,0.8506262
7496440000000,-0.08385754,0.03213644,-0.010410309,-0.0983493,-0.007330383,0.020922136,0.43404514,-0.0055833384,-0.29717055,0.8504489
7496460000000,0.0,0.0,0.0,-0.09254608,-0.0022907446,0.02611449,0.43380225,-0.0060715,-0.29807824,0.8502519
7496480000000,-0.065620184,-0.06085968,-0.053524017,-0.07971791,0.00076358154,0.025350908,0.43357173,-0.0065347455,-0.29878947,0.85011625
7496500000000,-0.11811924,-0.11646891,-0.01962471,-0.0711658,0.0022907446,0.022449298,0.43336138,-0.0069957785,-0.29945943,0.84998417
7496520000000,-0.087396145,-0.16025543,0.0071725845,-0.04627304,0.0061086523,0.01282817,0.43322644,-0.0073249633,-0.2999056,0.8498929
7496540000000,-0.11844015,-0.04595852,-0.021772385,-0.052534413,0.0056505036,0.01572978,0.43314344,-0.0076270103,-0.30023283,0.849817
7496560000000,-0.11070943,0.031137943,-0.053938866,-0.06719518,0.0025961774,0.016798794,0.43301114,-0.007997636,-0.30073908,0.84970206
7496580000000,-0.0941062,-0.073518276,-0.012854576,-0.064446285,0.004428773,0.019089539,0.43284392,-0.008382792,-0.30132192,0.849577
7496600000000,-0.07831979,-0.12708187,-0.008716583,-0.04734206,0.012370021,0.014813482,0.43271312,-0.0087697,-0.3017709,0.84948045
7496620000000,-0.086937904,-0.10572529,-0.05287838,-0.025961773,0.021380283,0.013439035,0.43265346,-0.009131086,-0.30199638,0.84942675
7496640000000,-0.08773756,-0.102567196,-0.054932594,-0.0013744468,0.029626964,0.0143553335,0.4326044,-0.009467864,-0.3020046,0.84944516
7496660000000,-0.08720994,-0.08577919,-0.028313637,0.013897184,0.033750303,0.010231993,0.4326059,-0.009762502,-0.30175567,0.84952945
7496680000000,-0.09216857,0.02247572,-0.048895836,-0.007788532,0.02855795,0.011911872,0.4326164,-0.010036218,-0.30152848,0.8496016
7496700000000,-0.09688711,0.004898548,-0.043334007,-0.030695979,0.019242255,0.0125227375,0.4325713,-0.010388324,-0.30162138,0.8495875
7496720000000,-0.099122286,-0.08086109,-0.00018692017,-0.030390546,0.0143553335,0.01038471,0.43251732,-0.0107411,-0.3018727,0.8495213
7496740000000,-0.11219382,-0.13521528,-0.06498814,0.0056505036,0.014660766,0.002443461,0.43249446,-0.010981109,-0.3019582,0.84949934
7496760000000,0.0,0.0,0.0,0.028405234,0.013591751,-0.00061086525,0.4325436,-0.01100432,-0.30168313,0.8495718
7496780000000,-0.11773586,-0.05385208,-0.028650284,0.02397646,0.009315695,0.00061086525,0.4325892,-0.0110018775,-0.30136937,0.84966004
7496800000000,-0.077869415,0.018198967,-0.01649952,0.01160644,0.0021380284,0.0032070426,1.0,0.0,0.0,0.0
7496820000000,-0.09279871,-0.014801502,-0.04869938,0.0009162979,0.00045814895,0.008246681,0.43253797,-0.010995976,-0.3011619,0.84975976
7496840000000,-0.09436965,-0.12187195,0.008844376,0.01038471,0.0022907446,0.005955936,0.43246704,-0.011028156,-0.30111954,0.8498104
7496860000000,-0.091053724,-0.06821442,-0.040275574,0.027488936,0.007330383,0.00061086525,0.4324705,-0.011018579,-0.3009443,0.84987074
7496880000000,-0.10018611,-0.04393339,-0.028952599,0.026267206,0.012980887,0.004428773,0.4324785,-0.010998381,-0.3006305,0.8499781
7496900000000,-0.083185434,-0.051688194,-0.054843903,0.0125227375,0.013897184,-0.0067195175,0.43252417,-0.011044735,-0.3004018,0.85003513
7496920000000,-0.07768726,-0.02193451,-0.019953728,0.0041233404,0.014202617,0.0009162979,0.4326193,-0.011105333,-0.3002661,0.85003376
7496940000000,-0.0762434,-0.05870676,-0.014578819,0.020005837,0.019394971,-0.0021380284,0.4326554,-0.01126053,-0.300158,0.8500517
7496960000000,-0.06362033,-0.099089146,-0.04112625,0.032070424,0.030695979,0.00045814895,0.432735,-0.011351924,-0.29979682,0.8501373
7496980000000,-0.10443807,0.059191227,-0.07924366,0.014049901,0.029474247,0.0018325958,0.4328465,-0.011510105,-0.299385,0.8502236
7497000000000,-0.07960415,-0.035295963,-0.0076322556,0.0030543262,0.02367103,0.005497787,0.43287426,-0.011752402,-0.2992722,0.8502459
7497020000000,-0.098484516,-0.10193682,-0.024155617,0.02107485,0.025350908,0.0021380284,0.4329124,-0.011950869,-0.29908755,0.85028857
7497040000000,-0.1027019,-0.02334404,-0.055607796,0.013439035,0.013286319,0.0013744468,0.43296644,-0.012041822,-0.29876548,0.850373
7497060000000,-0.08565974,-0.049289703,-0.05291748,-0.00045814895,0.0065668016,0.00030543262,0.43298548,-0.012102661,-0.29872334,0.85037726
7497080000000,-0.10977173,-0.091828346,-0.00015640259,0.014966198,0.0062613687,0.0012217305,0.43299234,-0.012164585,-0.29865903,0.85039556
7497100000000,-0.10054612,-0.021950245,0.00683403,0.0070249503,0.00030543262,0.0033597588,0.43299723,-0.012149165,-0.29846305,0.8504621
7497120000000,-0.10545397,0.027561665,-0.042710304,-0.020005837,-0.014049901,0.0071776668,0.43293393,-0.012158545,-0.2985626,0.8504591
7497140000000,-0.10641813,-0.09053421,-0.02827835,-0.011911872,-0.015577064,0.008857546,0.43279564,-0.012156398,-0.29884392,0.8504307
7497160000000,-0.08262658,-0.08375597,-0.045030594,0.005192355,-0.013286319,0.009010263,0.43267915,-0.012078497,-0.2989109,0.8504676
7497180000000,-0.09508824,-0.0044436455,-0.06020546,0.037110064,-0.016340645,0.0061086523,0.43256894,-0.0119581,-0.2988299,0.8505539
7497200000000,-0.0912838,-0.23219585,0.13572693,0.010842858,-0.020616703,0.0022907446,0.43241072,-0.011613506,-0.2985997,0.8507199
7497220000000,-0.14162183,0.090465546,-0.1782732,0.0125227375,-0.02275473,-0.0038179078,0.43244755,-0.011404791,-0.29862267,0.8506959
7497240000000,-0.06500363,-0.005072117,-0.0019931793,-0.0033597588,-0.026725354,-0.0016798794,0.43235683,-0.011191952,-0.29871455,0.85071266
7497260000000,-0.09886122,-0.11224556,-0.009968758,0.0050396384,-0.011911872,-0.007941248,0.43234217,-0.011033937,-0.29886463,0.85066944
7497280000000,-0.06359768,0.024855614,-0.089541435,0.012064588,-0.0076358155,-0.010995574,0.43240055,-0.010858223,-0.29870522,0.85069793
7497300000000,-0.06755066,0.056695938,-0.01642418,-0.03176499,-0.016646078,-0.010537425,0.4324711,-0.0107715065,-0.29881588,0.8506245
7497320000000,-0.06337333,-0.09786606,-0.020952225,-0.026267206,-0.0041233404,-0.004428773,0.43247968,-0.010855944,-0.29928446,0.8504541
7497340000000,-0.07058549,-0.07421017,-0.04985714,-0.0035124752,0.0076358155,-0.004886922,0.43253794,-0.01093293,-0.29932007,0.850411
7497360000000,-0.070103884,-0.00757885,-0.027357101,-0.026572637,0.003970624,-0.0062613687,0.4326039,-0.01100264,-0.29934794,0.8503669
7497380000000,-0.10738754,0.006907463,-0.04449272,-0.030390546,0.005955936,-0.005955936,0.43266365,-0.011195747,-0.29963475,0.85023284
7497400000000,-0.1200583,-0.049844265,-0.010299683,-0.028405234,0.002443461,-0.0071776668,0.43272388,-0.011376744,-0.29984897,0.8501243
7497420000000,-0.12411523,-0.0039081573,-0.05913925,-0.04062254,-0.007941248,-0.008246681,0.43279,-0.011482334,-0.30015123,0.84998244
7497440000000,-0.11002302,-0.09383106,-0.012660027,-0.03313944,-0.010231993,-0.0070249503,0.43279994,-0.011556746,-0.30055368,0.84983426
7497460000000,-0.104460955,-0.09326172,-0.020163536,-0.011453724,-0.0070249503,-0.008093964,0.43285432,-0.01156866,-0.30074567,0.8497385
7497480000000,-0.08790517,-0.014439583,-0.048514366,-0.025350908,-0.015577064,-0.0036651916,0.43287066,-0.011541773,-0.3008911,0.849679
7497500000000,-0.072630644,-0.011296272,-0.05169773,-0.03283401,-0.021838432,-0.0038179078,0.43283275,-0.011511879,-0.30127382,0.8495631
7497520000000,-0.105576515,-0.05036211,-0.013372421,-0.03573562,-0.023365596,0.0009162979,0.43276742,-0.011464267,-0.30165157,0.8494629
7497540000000,-0.09187436,-0.0013923645,-0.05117035,-0.04932737,-0.027488936,-0.00061086525,0.4326895,-0.011448374,-0.3021013,0.84934306
7497560000000,0.0,0.0,0.0,-0.058184914,-0.02687807,0.0013744468,1.0,0.0,0.0,0.0
7497580000000,-0.10717893,-0.09202862,-0.0012493134,-0.04734206,-0.02367103,-0.00015271631,0.43250513,-0.011521641,-0.30329254,0.8490114
7497600000000,-0.060478687,-0.110845566,-0.05036354,-0.029474247,-0.018936822,-0.0061086523,0.43244904,-0.011503914,-0.30371013,0.84889084
7497620000000,-0.07790065,-0.040222645,-0.046568394,-0.022602014,-0.016646078,-0.0056505036,0.43246508,-0.0114586195,-0.30397937,0.84878695
7497640000000,-0.06869888,-0.0781126,-0.019978523,-0.01572978,-0.017715093,-0.0062613687,0.4324503,-0.01140335,-0.30423024,0.84870535
7497660000000,-0.083919525,-0.043593884,-0.053429604,-0.0016798794,-0.012370021,-0.006414085,0.43247426,-0.011294435,-0.30434608,0.8486531
7497680000000,-0.076773405,-0.05973673,-0.031088829,-0.004276057,-0.008857546,-0.005192355,1.0,0.0,0.0,0.0
7497700000000,-0.0859952,-0.051778793,-0.02981186,-0.003970624,-0.0018325958,-0.007330383,0.4325131,-0.01118302,-0.30446848,0.8485908
7497720000000,-0.08899093,-0.015598774,-0.06950474,-0.011301007,-0.0038179078,-0.004886922,0.43257725,-0.011195266,-0.30451378,0.8485417
7497740000000,-0.07998943,-0.063278675,-0.032534122,-0.021380283,-0.004581489,-0.0041233404,0.4325924,-0.01122832,-0.30468696,0.84847134
7497760000000,-0.07046151,-0.060112476,-0.051445484,-0.014813482,-0.0033597588,-0.0013744468,1.0,0.0,0.0,0.0
7497780000000,-0.0730114,-0.073958874,-0.03613615,-0.0033597588,-0.0013744468,-0.0010690142,0.43260515,-0.011329743,-0.30495366,0.84836775
7497800000000,-0.102428675,-0.068573475,-0.015954971,-0.0071776668,-0.0009162979,-0.0025961774,0.4326091,-0.011348922,-0.3049905,0.8483522
7497820000000,-0.0896194,-0.021217823,-0.055687904,0.0,0.0,0.0,0.43262154,-0.011389004,-0.3050504,0.84832376
7497840000000,-0.10462308,-0.04711008,-0.04449463,-0.009010263,-0.00061086525,0.003970624,0.43258995,-0.011451668,-0.3050847,0.8483267
7497860000000,-0.08273697,-0.060401917,-4.7683716e-06,0.0,0.0,0.0,0.43254727,-0.0115033295,-0.30521858,0.8482996
7497880000000,-0.098713875,-0.03179121,-0.05327034,-0.0035124752,-0.0061086523,0.00076358154,0.43253532,-0.011515623,-0.30539045,0.8482436
7497900000000,-0.07341099,-0.12167072,0.0074892044,0.0047342055,-0.0032070426,-0.0012217305,0.43250334,-0.011469878,-0.3053715,0.8482674
7497920000000,-0.07038331,-0.04049158,-0.045960426,0.012064588,0.00061086525,-0.004428773,0.4325511,-0.011432101,-0.3052999,0.8482693
7497940000000,-0.08711219,0.0024495125,-0.049517155,0.0018325958,0.00076358154,-0.002443461,1.0,0.0,0.0,0.0
7497960000000,-0.10103202,-0.02006054,-0.0650692,0.0013744468,-0.0027488936,0.0021380284,0.43258622,-0.011407271,-0.30521315,0.84828293
7497980000000,-0.08613753,-0.11435318,-0.025330544,0.012064588,-0.005955936,-0.0036651916,0.4325527,-0.011371304,-0.30520618,0.848303
7498000000000,-0.10010624,-0.03595543,-0.06343269,0.019394971,-0.0016798794,-0.00290161,0.43259513,-0.011244471,-0.30506337,0.8483345
7498020000000,0.0,0.0,0.0,0.020005837,-0.003970624,-0.00076358154,1.0,0.0,0.0,0.0
7498040000000,-0.06418967,-0.08975935,0.021637917,0.026572637,-0.005497787,-0.003970624,1.0,0.0,0.0,0.0
7498060000000,-0.09161615,0.040015697,-0.045466423,0.01038471,-0.0050396384,-0.0018325958,0.43262598,-0.01086506,-0.30453753,0.8485126
7498080000000,-0.11616182,0.041679382,-0.066189766,-0.015118915,-0.014660766,0.0033597588,0.43259147,-0.0108221825,-0.30461353,0.8485035
7498100000000,-0.09814954,-0.09663582,-0.0120744705,-0.016340645,-0.016798794,0.0032070426,0.43248975,-0.010801988,-0.30488926,0.8484566
7498120000000,-0.10610485,-0.12569809,-0.059041977,0.007788532,-0.010995574,-0.0025961774,0.43244213,-0.010726036,-0.3050028,0.848441
7498140000000,-0.08449435,-0.039147854,-0.052901268,0.014813482,-0.0106901415,-0.002443461,0.4324408,-0.010583904,-0.3048993,0.8484807
7498160000000,-0.08124423,-0.019775867,-0.023536682,0.0070249503,-0.010537425,-0.00030543262,0.4324277,-0.010442299,-0.3048435,0.8485092
7498180000000,-0.071564436,-0.065732956,-0.014072418,0.0032070426,-0.004886922,0.00015271631,0.4324021,-0.010370309,-0.30484486,0.84852254
7498200000000,-0.065479755,0.0028018951,-0.047517776,-0.0021380284,0.00076358154,0.004428773,0.43238756,-0.01035365,-0.30483225,0.8485348
7498220000000,-0.06977439,0.0493989,-0.0506773,0.0041233404,0.0010690142,0.0030543262,0.43234146,-0.010442857,-0.3048671,0.84854454
7498240000000,-0.0373199,-0.10141659,0.03558731,-0.022449298,0.010079277,0.0036651916,0.43230596,-0.01046008,-0.30486596,0.84856296
7498260000000,-0.09103012,0.0994668,-0.09127998,0.0,0.0,0.0,0.4323121,-0.010745666,-0.30506626,0.84848416
7498280000000,-0.05363369,-0.00593853,-0.04376173,-0.067500606,0.0021380284,0.01985312,0.4321262,-0.011196199,-0.3055847,0.84838647
7498300000000,-0.13859701,-0.0943737,-0.011957645,0.0,0.0,0.0,0.4319672,-0.011536484,-0.3061704,0.8482518
7498320000000,-0.14108777,-0.031286716,-0.020941257,-0.069027774,-0.03191771,0.0036651916,0.43181476,-0.011659996,-0.306739,0.84812224
7498340000000,-0.12147546,0.009739399,0.0071792603,-0.070249505,-0.06001751,0.0021380284,1.0,0.0,0.0,0.0
7498360000000,-0.0780642,-0.08548927,0.018017769,-0.06337727,-0.062002823,0.012370021,0.4313815,-0.011356753,-0.3084382,0.84773046
7498380000000,-0.028936625,-0.08277893,-0.07610273,-0.039095376,-0.046731193,0.01985312,0.4310694,-0.011163882,-0.3091246,0.8476419
7498400000000,0.021970987,-0.064171314,-0.09627962,-0.0076358155,-0.017256944,0.030695979,1.0,0.0,0.0,0.0
7498420000000,-0.0685339,-0.09736252,-0.048322678,0.053145275,0.007330383,0.03145956,0.43045098,-0.011113663,-0.3092993,0.84789294
7498440000000,-0.058092833,-0.19967842,0.04795885,0.05207626,0.014660766,0.017562376,0.43025845,-0.011000399,-0.30861357,0.8482419
7498460000000,-0.13222337,0.17902279,-0.15695333,0.0,0.0,0.0,0.43028313,-0.011007521,-0.30826187,0.84835726
7498480000000,-0.07579088,-0.01229763,0.017868519,0.0,0.0,0.0,0.4301989,-0.011043437,-0.30830184,0.8483849
7498500000000,-0.06933379,-0.1737504,0.009522438,0.016187929,0.009010263,-0.0010690142,0.43018526,-0.01107418,-0.30831105,0.8483881
7498520000000,-0.056049824,0.008714199,-0.08613777,0.0,0.0,0.0,0.43022713,-0.011081665,-0.3080293,0.84846914
7498540000000,-0.07772136,-0.045315742,-0.039194584,0.017715093,0.00870483,0.014202617,0.43017337,-0.011159343,-0.30789146,0.8485453
7498560000000,-0.08692145,-0.13370895,0.015071392,0.04795292,0.013286319,0.01740966,0.4300615,-0.0111989835,-0.3075848,0.84871274
7498580000000,-0.1270318,-0.020762444,-0.047545433,0.0,0.0,0.0,1.0,0.0,0.0,0.0
7498600000000,-0.13862371,0.036393166,-0.04473543,0.008246681,-0.02565634,0.022296581,0.4297147,-0.0109524205,-0.30695152,0.84912086
7498620000000,-0.14607358,-0.0391469,-0.00425148,0.007330383,-0.038026363,0.025961773,0.42939326,-0.010761972,-0.3070763,0.84924066
7498640000000,-0.12077737,-0.04993105,-0.01189518,0.013439035,-0.049632803,0.023823744,0.4290376,-0.010433081,-0.3071651,0.8493925
7498660000000,-0.08928633,-0.034107685,-0.057667255,0.016340645,-0.050396383,0.020616703,0.42869824,-0.009996761,-0.30727524,0.84952927
7498680000000,-0.04383397,-0.084197044,-0.0066957474,0.03680463,-0.033444874,0.022907447,0.4283812,-0.009599763,-0.30726612,0.849697
7498700000000,-0.028715134,-0.11349487,-0.012889385,0.0,0.0,0.0,0.42813724,-0.009288578,-0.30690286,0.8499547
7498720000000,0.0,0.0,0.0,0.06719518,0.019547688,0.0154243475,0.4280272,-0.00913721,-0.3062784,0.85023695
7498740000000,-0.032382727,-0.0076794624,-0.064190865,0.06612616,0.038179077,0.0076358155,0.42803252,-0.009182915,-0.30557138,0.85048807
7498760000000,-0.11012435,-0.006488323,0.025894165,0.04062254,0.0364992,-0.0032070426,0.4281391,-0.009292727,-0.30487403,0.8506835
7498780000000,-0.069806576,-0.014438629,-0.023713112,0.015577064,0.03191771,-0.011301007,0.42833534,-0.0094757425,-0.30455506,0.850697
7498800000000,-0.03813529,0.02100277,-0.04114771,-0.009773844,0.03756821,-0.012217305,0.42853537,-0.00969673,-0.30436003,0.8506635
7498820000000,-0.079636574,0.1168766,-0.0422287,0.0,0.0,0.0,0.42876026,-0.010126586,-0.30447954,0.85050243
7498840000000,-0.11785936,-0.062828064,-0.013773441,-0.057268616,0.0143553335,-0.012370021,0.4288477,-0.010591292,-0.30493352,0.85029
7498860000000,-0.09614563,-0.08516312,-0.09762144,-0.019242255,0.013286319,-0.035277467,0.42911425,-0.010815621,-0.3052736,0.8500307
7498880000000,0.0,0.0,0.0,0.05757405,0.025961773,-0.03772093,0.4294923,-0.010780393,-0.3050951,0.84990424
7498900000000,-0.08846092,-0.13857412,-0.015213013,0.12583824,0.03481932,-0.03726278,0.4299417,-0.0105483895,-0.30405125,0.850054
7498920000000,-0.103208065,-0.031923294,0.047932625,0.10919216,0.02076942,-0.034208454,1.0,0.0,0.0,0.0
7498940000000,-0.06918311,0.058280468,-0.029462814,0.061086524,0.009162978,-0.029321533,0.4306784,-0.009785342,-0.30199486,0.85042304
7498960000000,-0.09159207,-0.019789696,0.017197609,0.0143553335,-0.0025961774,-0.024740042,0.43088672,-0.009603397,-0.30171636,0.85041857
7498980000000,-0.095068455,-0.06501007,-0.05343008,0.01450805,0.001985312,-0.027947085,0.4311027,-0.009495354,-0.30170906,0.8503128
7499000000000,-0.06025815,0.013325214,-0.086382866,0.03481932,0.0096211275,-0.023823744,1.0,0.0,0.0,0.0
7499020000000,-0.051003218,-0.28423977,0.033740044,0.0,0.0,0.0,0.4315894,-0.0091998475,-0.30100435,0.850319
7499040000000,-0.08785534,-0.15412712,-0.053077698,0.12293663,0.02443461,-0.038331795,0.43201444,-0.008767939,-0.29992935,0.8504876
7499060000000,-0.0879488,0.15616798,-0.09987354,0.082619525,0.02031127,-0.013591751,0.43234375,-0.0084407525,-0.29890242,0.85068506
7499080000000,-0.07507634,-0.15753794,0.021431923,0.079870634,0.01817324,-0.006872234,0.43242574,-0.008268004,-0.29821345,0.8508868
7499100000000,-0.11110401,0.064165115,-0.04732418,0.061850104,0.012980887,-0.0067195175,0.43257314,-0.008067771,-0.29747257,0.8510732
7499120000000,-0.0672791,0.09448624,-0.062623024,0.024892759,0.0033597588,0.0016798794,0.43260884,-0.007948977,-0.29708984,0.8511898
7499140000000,-0.0696919,-0.003993988,0.010029793,0.0033597588,-0.00015271631,-0.0013744468,1.0,0.0,0.0,0.0
7499160000000,-0.06333065,-0.0024576187,-0.06323242,-0.006872234,0.0041233404,0.00076358154,0.43261635,-0.007960422,-0.29704177,0.85120267
7499180000000,-0.063480616,0.049912453,-0.06319904,-0.020463986,0.0053450707,0.007788532,0.43261173,-0.0080609005,-0.2970908,0.85118693
7499200000000,-0.11927843,0.0068511963,-0.05542755,0.0,0.0,0.0,0.43252262,-0.008316337,-0.29739454,0.85112375
7499220000000,-0.0025866032,-0.2033,0.17236805,-0.0071776668,0.007788532,0.008399397,0.43250787,-0.008470216,-0.29759663,0.851059
7499240000000,-0.029208422,-0.12930727,-0.0813303,0.039858956,0.0355829,-0.008246681,1.0,0.0,0.0,0.0
7499260000000,-0.10565519,0.07472515,-0.12010622,0.01740966,0.028405234,0.00015271631,0.4327225,-0.008771913,-0.2968384,0.8512118
7499280000000,-0.06365466,-0.07271528,0.075330734,-0.011759156,0.013439035,-0.0050396384,0.43278766,-0.008911181,-0.29680443,0.85118896
7499300000000,-0.11408591,-0.011194706,-0.06571865,0.015271631,0.026725354,0.0033597588,0.4328768,-0.009101214,-0.29677078,0.85115325
7499320000000,-0.15528345,0.09318495,-0.042578697,0.0041233404,0.011453724,0.0032070426,0.43290013,-0.009282228,-0.2964911,0.851237
7499340000000,-0.12058759,-0.06958246,0.104198456,-0.053145275,-0.006872234,-0.005955936,0.43289238,-0.009352753,-0.29667512,0.85117596
7499360000000,-0.13762498,0.066111565,-0.14817238,-0.056046885,-0.0106901415,-0.016340645,0.4329675,-0.009517756,-0.29729652,0.85091925
7499380000000,-0.056371927,-0.03212166,-0.049853325,0.0,0.0,0.0,1.0,0.0,0.0,0.0
7499400000000,-0.050178766,-0.20547295,0.017392159,0.0,0.0,0.0,1.0,0.0,0.0,0.0
7499420000000,-0.046955824,-0.116692066,-0.09114313,0.0030543262,0.008552114,-0.011301007,0.4333206,-0.00966908,-0.2986912,0.85024905
7499440000000,-0.0922513,0.064414024,-0.068078995,0.0010690142,0.0030543262,-0.0033597588,0.43341288,-0.009667207,-0.29846868,0.85028017
7499460000000,-0.054335594,-0.091826916,0.034108162,-0.021227567,-0.007788532,-0.002443461,0.4333942,-0.0097084865,-0.29864284,0.8502281
7499480000000,-0.03907895,-0.0850873,-0.06051159,0.0047342055,0.004581489,-0.006872234,0.43343297,-0.009738185,-0.29878297,0.8501588
7499500000000,-0.047696352,0.032945633,-0.031718254,0.008399397,0.0065668016,0.0025961774,0.4334929,-0.0097465515,-0.29861692,0.8501864
7499520000000,-0.074427605,-0.0066900253,-0.029677391,-0.010537425,0.0050396384,0.00061086525,0.4334823,-0.009795036,-0.29857376,0.85020643
7499540000000,-0.08815503,0.020363808,-0.010123253,0.0,0.0,0.0,0.43347842,-0.009929412,-0.29870576,0.85016036
7499560000000,-0.068054914,-0.016629219,-0.06278324,-0.027030786,-0.00076358154,0.001985312,1.0,0.0,0.0,0.0
7499580000000,-0.09415889,-0.015163422,-0.023154259,-0.01985312,-0.013439035,-0.00030543262,0.43338406,-0.0101105785,-0.29913163,0.85005677
7499600000000,-0.09124613,-0.11666536,0.02128601,-0.0154243475,-0.016035212,-0.011453724,0.43337712,-0.010052215,-0.29940927,0.8499632
7499620000000,-0.104708195,-0.028016567,-0.06410122,-0.009773844,-0.017104227,-0.004428773,0.43341964,-0.00995833,-0.2995528,0.849892
7499640000000,-0.104824066,0.031894207,-0.038409233,-0.021685716,-0.030390546,-0.006872234,0.43339196,-0.009810238,-0.29973778,0.84984255
7499660000000,-0.092472315,-0.0073623657,0.0064725876,-0.045662176,-0.04016439,0.0,0.43331718,-0.009634844,-0.30019993,0.8497196
7499680000000,-0.091151714,-0.021179676,-0.021274567,-0.032070424,-0.040011674,0.0010690142,0.43315944,-0.009518721,-0.30077317,0.8495987
7499700000000,-0.042917967,0.0124492645,-0.0024385452,-0.0290161,-0.04153884,-0.00061086525,0.4330505,-0.009272142,-0.30111623,0.84953535
7499720000000,-0.051677465,-0.023962975,-0.044997215,-0.06627888,-0.040317107,0.0021380284,0.43291053,-0.009137602,-0.30170974,0.84939766
7499740000000,-0.037730694,-0.054062366,-0.093878746,-0.04627304,-0.02076942,0.0067195175,1.0,0.0,0.0,0.0
7499760000000,-0.060314894,-0.13229752,-0.044355392,-0.012064588,-0.00076358154,0.0065668016,0.4326611,-0.0092559,-0.30268344,0.8491769
7499780000000,0.0,0.0,0.0,-0.002443461,0.0056505036,-0.005192355,0.43268505,-0.009324769,-0.3026888,0.84916204
7499800000000,-0.05798912,-0.068148136,0.085660934,-0.00045814895,0.0056505036,0.0012217305,1.0,0.0,0.0,0.0
7499820000000,-0.03890562,-0.0007238388,-0.08517504,0.01695151,0.01985312,-0.007330383,0.43281046,-0.009468515,-0.30257812,0.84913594
7499840000000,-0.06336522,0.045538902,-0.055885315,-0.007941248,0.019700404,0.004428773,0.432899,-0.009584734,-0.3023029,0.84918773
7499860000000,-0.09005284,-0.07580423,0.034626007,-0.023365596,0.00992656,-0.0038179078,0.43291083,-0.009830906,-0.3024518,0.84912574
7499880000000,-0.10926628,-0.067765236,-0.060064793,0.0036651916,0.010995574,-0.0018325958,0.43298703,-0.009977677,-0.30253473,0.84905565
7499900000000,-0.115938425,-0.025797844,-0.04032755,0.007941248,0.0033597588,-0.004886922,0.43303046,-0.010020403,-0.30239415,0.84908307
7499920000000,-0.0698719,-0.12046766,-0.012078285,0.012675454,-0.0030543262,-0.011301007,0.43308383,-0.009950853,-0.30236244,0.84906787
7499940000000,-0.102831125,-0.08096123,-0.057739258,0.03481932,0.004428773,-0.00992656,0.43320194,-0.009816332,-0.30212283,0.8490947
7499960000000,-0.084223986,0.044635773,-0.011462212,0.007788532,-0.011911872,-0.008399397,0.43326798,-0.009686212,-0.3018595,0.849156
7499980000000,-0.06731629,0.031654358,-0.024281502,-0.03436117,-0.01863139,-0.00045814895,0.43326533,-0.009570402,-0.30210605,0.849071
7500000000000,-0.071020365,-0.026283264,-0.08883715,-0.016493361,-0.0053450707,0.0067195175,0.4331725,-0.009651339,-0.3025008,0.8489768
7500020000000,-0.03697014,-0.09831953,-0.011853218,0.018478673,0.007788532,0.0036651916,0.43313754,-0.009663543,-0.30243146,0.84901935
7500040000000,-0.054285288,-0.076284885,-0.015842438,0.023060163,0.013286319,0.0009162979,0.4331428,-0.009689739,-0.30216563,0.849111
7500060000000,-0.059058666,0.0033364296,-0.08091688,0.028405234,0.018020526,-0.00290161,0.43321612,-0.009711005,-0.30187908,0.84917516
7500080000000,-0.06973338,-0.010853767,-0.028102875,0.0,0.0,0.0,0.43330353,-0.009770369,-0.30155143,0.8492464
7500100000000,-0.06716299,-0.049927235,-0.004896164,0.0154243475,0.01985312,-0.004276057,0.43337774,-0.009855186,-0.30131748,0.8492905
7500120000000,-0.066812515,-0.030905247,-0.060301304,0.01572978,0.025350908,0.00030543262,0.43347803,-0.009993684,-0.3011063,0.84931266
7500140000000,-0.055924892,-0.02749157,-0.013216019,0.026267206,0.02687807,-0.0013744468,1.0,0.0,0.0,0.0
7500160000000,-0.04394722,-0.05627346,-0.006547928,0.026725354,0.027947085,-0.00015271631,0.43365106,-0.010265804,-0.30044213,0.84945625
7500180000000,-0.078603506,-0.041772366,-0.0748682,0.0,0.0,0.0,0.43373197,-0.010415469,-0.30009285,0.84953666
7500200000000,-0.071495295,-0.06410122,-0.025876045,0.030848695,0.026419923,0.0050396384,0.43377158,-0.010549988,-0.29970154,0.8496528
7500220000000,-0.090628624,-0.024518013,0.0131492615,0.032528576,0.02107485,0.005192355,0.43381858,-0.01065298,-0.29931444,0.84976405
7500240000000,-0.06500411,-0.013771534,-0.0658226,0.014049901,0.020616703,0.0018325958,0.43383017,-0.010751608,-0.29904664,0.8498511
7500260000000,-0.05544114,-0.06372595,-0.028883934,0.024740042,0.016340645,0.0009162979,0.4338761,-0.010847649,-0.2988355,0.8499007
7500280000000,-0.08797622,-0.08932972,0.031773567,0.035277467,0.015271631,-0.004581489,1.0,0.0,0.0,0.0
7500300000000,0.0,0.0,0.0,0.017562376,0.0076358155,-0.0013744468,1.0,0.0,0.0,0.0
7500320000000,-0.05723405,0.012980938,-0.07466698,0.026419923,0.010842858,0.0016798794,0.43404916,-0.010813374,-0.29803675,0.85009336
7500340000000,-0.079125166,-0.116300106,0.05182171,0.043218717,0.015882496,0.004581489,0.43405256,-0.010800547,-0.29761556,0.85023916
7500360000000,-0.080271006,0.029310703,-0.038217545,0.01786781,0.0033597588,-0.008857546,0.4341094,-0.010741275,-0.29723036,0.8503457
7500380000000,-0.07314968,0.06238222,-0.05476761,-0.026725354,-0.006872234,-0.00290161,0.43417895,-0.010721546,-0.29732117,0.85027874
7500400000000,0.0,0.0,0.0,-0.006414085,0.0061086523,0.0010690142,0.4341544,-0.010841988,-0.29763615,0.85017943
7500420000000,-0.027084827,-0.15504456,0.0063915253,0.03176499,0.017104227,0.0032070426,0.43416527,-0.010895417,-0.29739746,0.8502568
7500440000000,-0.06074834,-0.010415554,-0.059137344,0.01695151,0.01450805,0.002443461,0.43421215,-0.010915259,-0.29703945,0.8503578
7500460000000,-0.05637026,0.025451183,-0.02027607,0.0070249503,0.013897184,0.017562376,0.43417963,-0.011024032,-0.29691783,0.85041547
7500480000000,-0.07033968,-0.058382034,-0.0012111664,0.008857546,0.01863139,0.015882496,0.43405363,-0.011219921,-0.29679266,0.8505209
7500500000000,-0.09267259,0.0418334,-0.04067993,0.0,0.0,0.0,0.43398693,-0.011383082,-0.29665223,0.8506017
7500520000000,0.0,0.0,0.0,0.0,0.0,0.0,0.4339152,-0.011574897,-0.29676917,0.8505949
7500540000000,-0.01996994,-0.0034236908,-0.02251339,-0.02855795,0.023365596,0.005192355,0.43392047,-0.011829914,-0.29693717,0.85053015
7500560000000,-0.057808638,0.0071349144,-0.06381893,-0.04046982,0.0355829,0.008246681,0.4339639,-0.012276143,-0.29708162,0.85045123
7500580000000,-0.0594337,-0.045458317,-0.023166656,-0.05100725,0.037415497,0.0012217305,1.0,0.0,0.0,0.0
7500600000000,0.0,0.0,0.0,0.0,0.0,0.0,0.43411654,-0.013396298,-0.29763836,0.85016173
7500620000000,0.0,0.0,0.0,-0.06383542,0.017256944,0.0018325958,0.43413407,-0.013893293,-0.29808536,0.84998804
7500640000000,-0.09347725,-0.0015459061,-0.065434456,-0.0580322,0.0053450707,0.0065668016,0.43414402,-0.014267108,-0.2985639,0.8498089
7500660000000,0.0,0.0,0.0,-0.0364992,0.00045814895,0.009315695,1.0,0.0,0.0,0.0
7500680000000,-0.06381369,-0.15901947,-0.0136060715,0.0027488936,0.002443461,0.009773844,1.0,0.0,0.0,0.0
7500700000000,-0.069485426,-0.047205925,-0.07179117,0.026267206,0.0030543262,0.013286319,0.43389046,-0.014645127,-0.2989419,0.84979904
7500720000000,-0.081912756,-0.028939247,-0.013897896,0.030390546,-0.00061086525,0.014813482,0.43376762,-0.014566233,-0.2986496,0.8499659
7500740000000,-0.08872819,0.01223278,0.007378578,0.004886922,-0.003970624,0.012370021,0.433649,-0.014500678,-0.29844388,0.8500998
7500760000000,-0.10146761,0.11466837,-0.06389713,-0.036957346,-0.015271631,0.014049901,1.0,0.0,0.0,0.0
7500780000000,-0.08116913,-0.006793976,0.009033203,-0.050549097,-0.025503624,0.010995574,1.0,0.0,0.0,0.0
7500800000000,-0.07420111,-0.14735699,0.0065984726,-0.031001411,-0.021991149,0.004886922,0.433174,-0.014668739,-0.29968664,0.8499019
7500820000000,-0.041026592,-0.039034843,-0.09864807,-0.004886922,-0.012064588,0.0065668016,0.4330943,-0.014586669,-0.29985434,0.8498847
7500840000000,-0.06518221,-0.0016832352,-0.039114952,-0.0030543262,-0.00992656,0.00992656,0.43298933,-0.014560224,-0.2998992,0.8499229
7500860000000,0.0,0.0,0.0,-0.01572978,-0.005497787,0.01038471,0.43288097,-0.014538623,-0.29997745,0.8499507
7500880000000,-0.080235004,0.18442726,-0.086930275,-0.05971208,-0.003970624,0.024740042,0.4327472,-0.014717921,-0.30027118,0.8499121
7500900000000,0.0,0.0,0.0,-0.09162979,-0.023518313,0.02611449,0.43243486,-0.015098522,-0.30102408,0.849798
7500920000000,-0.086680174,-0.28130484,0.030420303,-0.057268616,-0.021227567,0.0038179078,0.4321878,-0.015298817,-0.30191508,0.8496041
7500940000000,0.0,0.0,0.0,0.014202617,-0.0025961774,-0.0021380284,0.4321841,-0.0152791245,-0.30214378,0.849525
7500960000000,0.0,0.0,0.0,0.056352317,0.0106901415,-0.007788532,0.43224514,-0.015143613,-0.30172572,0.8496449
7500980000000,-0.0778625,-0.028232574,-0.0019006729,0.054367006,0.013439035,-0.0047342055,0.43236944,-0.014977098,-0.3011137,0.8498017
7501000000000,-0.08974886,0.05181265,-0.043585777,0.021533,0.00992656,0.00045814895,0.43243045,-0.01491784,-0.3007153,0.84991276
7501020000000,-0.056621075,0.044119358,-0.063752174,-0.0010690142,0.006414085,0.008399397,0.43242386,-0.014973114,-0.30064163,0.84994125
7501040000000,-0.061684847,-0.0971241,-0.01458168,0.005955936,0.010079277,0.008246681,0.43234432,-0.015093769,-0.30064988,0.8499766
7501060000000,-0.061184645,-0.06836176,-0.051272392,0.032375857,0.013744468,0.0038179078,0.4323402,-0.0151492525,-0.30043682,0.850053
7501080000000,-0.06367302,-0.007660389,-0.041682243,0.03756821,0.009162978,0.0071776668,0.4323537,-0.015101497,-0.30002704,0.85019183
7501100000000,-0.10197282,-0.0091667175,-0.021055222,0.026419923,0.002443461,0.0010690142,0.43232533,-0.015044236,-0.2997148,0.8503174
7501120000000,-0.067154884,0.025410652,-0.0029172897,0.0030543262,-0.0038179078,0.0032070426,0.43233207,-0.014957593,-0.29956847,0.85036695
7501140000000,0.0,0.0,0.0,-0.0041233404,-0.010231993,0.004886922,0.4322578,-0.014970752,-0.29967353,0.8503676
7501160000000,-0.0939548,-0.11972666,-0.030435562,0.018020526,-0.013439035,0.0009162979,0.4321931,-0.014858598,-0.29969078,0.8503962
7501180000000,-0.07474899,-0.055376053,-0.041165352,0.031306844,-0.011148291,-0.0009162979,0.4321676,-0.014650458,-0.29950508,0.85047823
7501200000000,-0.03843403,-0.06595278,-0.04149437,0.03940081,-0.005955936,0.0021380284,0.4321377,-0.014423452,-0.29924256,0.85058975
7501220000000,-0.05697465,0.02617836,-0.03281021,0.027794369,-0.0016798794,0.0056505036,1.0,0.0,0.0,0.0
7501240000000,-0.07855201,0.03296709,-0.05092144,-0.0047342055,-0.008399397,0.0047342055,1.0,0.0,0.0,0.0
7501260000000,-0.06832218,-0.0019369125,-0.041740417,0.0,0.0,0.0,0.4319732,-0.014207085,-0.29900748,0.8507596
7501280000000,-0.040298223,-0.13322687,0.068110466,-0.00061086525,-0.0035124752,0.004276057,0.4319105,-0.014127844,-0.2989674,0.85080683
7501300000000,-0.07387018,0.08077955,-0.09846258,0.0,0.0,0.0,1.0,0.0,0.0,0.0
7501320000000,-0.03158927,-0.06954813,-0.03304577,-0.016493361,-0.012217305,-0.0018325958,0.43185395,-0.014172445,-0.29935932,0.85069704
7501340000000,-0.074677944,-0.20983505,-0.0063552856,0.029626964,0.0041233404,-0.009162978,0.43189648,-0.014092868,-0.29934654,0.8506812
7501360000000,-0.06482792,0.06717157,-0.0790844,0.028863383,0.0012217305,-0.0071776668,0.4320101,-0.013931946,-0.29890597,0.85078114
7501380000000,-0.08066535,-0.003727913,0.024312973,-0.009010263,-0.015271631,-0.007330383,0.43203712,-0.013838331,-0.298867,0.8507825
7501400000000,-0.06304622,-0.105618,-0.03422928,0.0035124752,-0.0096211275,-0.008399397,0.43206328,-0.013751706,-0.29908913,0.8506926
7501420000000,-0.07066846,0.02454853,-0.06133461,0.01695151,-0.0070249503,-0.004886922,0.43210703,-0.013610651,-0.29894158,0.8507245
7501440000000,-0.08469105,-0.014103889,-0.001572609,-0.012064588,-0.015118915,-0.0106901415,0.43213445,-0.013470276,-0.29892784,0.85071766
7501460000000,0.0,0.0,0.0,-0.0062613687,-0.008399397,-0.009773844,0.43218735,-0.013416089,-0.29916796,0.8506072
7501480000000,-0.05842614,0.016124725,-0.051026344,0.005955936,-0.0022907446,-0.0018325958,0.43223342,-0.013357533,-0.29913327,0.8505969
7501500000000,-0.080435276,-0.009486198,-0.02429676,-0.01985312,-0.010537425,-0.0010690142,0.43221784,-0.013346993,-0.299169,0.85059243
7501520000000,-0.042057276,-0.08888531,0.003019333,-0.020463986,-0.01038471,-0.002443461,0.4321899,-0.013339868,-0.29947624,0.8504986
7501540000000,-0.06767893,-0.035683155,-0.08022261,0.008093964,0.00290161,0.0018325958,0.4321899,-0.013364588,-0.2995623,0.8504679
7501560000000,-0.046076298,-0.01536274,-0.025458336,0.005955936,0.001985312,-0.0022907446,0.4321814,-0.01335883,-0.2994007,0.8505294
7501580000000,-0.056227446,0.009988785,-0.021767616,-0.019700404,-0.0009162979,-0.00076358154,0.43222272,-0.013368209,-0.29945347,0.85048956
7501600000000,-0.08528304,0.041659832,-0.04064274,-0.030390546,-0.0030543262,0.0056505036,0.43218902,-0.013513458,-0.29971266,0.85041314
7501620000000,-0.10328555,-0.06520891,-0.028916359,-0.027794369,-0.01160644,-0.0022907446,0.4321204,-0.013615583,-0.30000228,0.8503442
7501640000000,-0.083637714,-0.08746815,-0.03254795,-0.027794369,-0.015882496,-0.0065668016,0.43212566,-0.013614535,-0.30033135,0.8502254
7501660000000,-0.03851843,-0.10585356,-0.028092384,0.004276057,-0.0096211275,-0.006872234,0.43214262,-0.013532332,-0.30051994,0.8501514
7501680000000,-0.07408857,0.015400887,-0.05550003,0.0022907446,-0.008857546,0.00061086525,1.0,0.0,0.0,0.0
7501700000000,-0.07075858,-0.020198822,-0.005402565,-0.014660766,-0.020922136,-0.0053450707,0.4321082,-0.013363111,-0.30057135,0.85015345
7501720000000,-0.039905548,-0.089821815,-0.02603054,-0.008399397,-0.01572978,-0.0038179078,0.43209988,-0.013207656,-0.30079585,0.8500807
7501740000000,-0.10381746,0.009762287,-0.05154085,0.00870483,-0.010842858,0.00061086525,0.43208522,-0.01313408,-0.30082253,0.85007983
7501760000000,-0.06633425,-0.014880657,-0.00018596649,-0.009315695,-0.0143553335,-0.011911872,0.4320697,-0.012998912,-0.30080715,0.8500953
7501780000000,-0.056578398,0.032063007,-0.07099056,0.0,0.0,0.0,1.0,0.0,0.0,0.0
7501800000000,-0.021082878,-0.09966278,-0.030088425,-0.008857546,-0.00015271631,-0.0096211275,0.4321995,-0.013021487,-0.30145928,0.8497979
7501820000000,-0.07249761,-0.07501936,-0.03128624,0.0053450707,0.010842858,-0.011911872,0.43231574,-0.013042241,-0.30136237,0.84977275
7501840000000,-0.0655365,0.054688454,-0.05727482,-0.0143553335,0.0021380284,-0.0033597588,1.0,0.0,0.0,0.0
7501860000000,-0.05261469,-0.07808542,0.024129868,-0.004886922,0.0036651916,-0.00030543262,1.0,0.0,0.0,0.0
7501880000000,-0.08763838,-0.05245781,-0.07039547,0.005497787,0.0096211275,0.0010690142,0.43245518,-0.013248848,-0.30141428,0.8496802
7501900000000,-0.03199935,-0.013224125,-0.06142044,0.0036651916,0.008399397,0.0022907446,0.43246016,-0.013321835,-0.3013298,0.8497065
7501920000000,0.0,0.0,0.0,0.021991149,0.012675454,-0.0015271631,0.43249074,-0.013395064,-0.30121788,0.84972954
7501940000000,-0.09016585,-0.017880917,-0.08169556,0.031001411,0.013591751,0.0010690142,0.43255314,-0.013389572,-0.30090374,0.849809
7501960000000,-0.09726477,7.009506e-05,0.108244896,0.0,0.0,0.0,0.43260026,-0.013267836,-0.30045667,0.84994525
7501980000000,-0.08601308,-0.051881313,-0.047016144,0.007941248,-0.005955936,-0.021685716,0.43259194,-0.0131249605,-0.30035812,0.84998643
7502000000000,-0.06753945,0.098107815,-0.14929724,-0.0015271631,-0.013439035,-0.0021380284,0.43272153,-0.012951947,-0.30036843,0.8499195
7502020000000,-0.03639722,-0.24688911,0.023945808,0.03863723,0.0,-0.010537425,0.4326994,-0.012830708,-0.30035016,0.84993905
7502040000000,-0.07153201,-0.06698847,-0.042427063,0.0,0.0,0.0,0.43286905,-0.012620311,-0.29971993,0.85007834
7502060000000,-0.04002714,0.1505127,-0.03569317,0.03283401,0.01160644,-0.00061086525,0.432978,-0.012435076,-0.29902384,0.8502707
7502080000000,-0.054804802,0.020046234,0.033460617,-0.021533,0.0071776668,-0.006414085,0.43299353,-0.012504051,-0.29900894,0.85026705
7502100000000,-0.024340391,0.05591774,-0.065608025,-0.030085113,0.013133603,-0.01817324,0.43313175,-0.012683341,-0.2992315,0.85011554
7502120000000,0.0,0.0,0.0,-0.1020145,0.0027488936,-0.01786781,0.43334067,-0.01298465,-0.29962224,0.849867
7502140000000,-0.08540726,-0.1330328,0.0025138855,-0.13622294,-0.010842858,-0.037110064,0.43350133,-0.013473448,-0.30092782,0.8493159
7502160000000,-0.030299187,-0.12319708,-0.06186056,-0.073303826,0.00030543262,-0.037873644,0.4338431,-0.013759975,-0.3019136,0.8487869
7502180000000,-0.034771204,0.12978888,-0.09066439,0.0,0.0,0.0,0.4341228,-0.013941391,-0.30223483,0.8485264
7502200000000,0.017730236,-0.421072,-0.039673805,0.021991149,0.02733622,-0.018936822,0.43415534,-0.0142207015,-0.30255714,0.8483903
7502220000000,0.026737928,-0.53119135,-0.0877676,0.2321288,0.08307768,-0.038331795,0.4346404,-0.01405578,-0.30122042,0.84862036
7502240000000,-0.11813903,-0.048573017,-0.027056694,0.2751948,0.08399397,-0.018478673,0.4352578,-0.013481194,-0.29824537,0.8493637
7502260000000,-0.068446636,0.088517666,0.009214401,0.20738874,0.056199603,-0.0056505036,0.4355718,-0.012989104,-0.2958292,0.8500551
7502280000000,0.0,0.0,0.0,0.1414153,0.04337143,0.004428773,0.43573517,-0.012643068,-0.29420432,0.85054034
7502300000000,-0.10483742,0.24768639,-0.044421196,0.0571159,0.025198191,0.01695151,0.435746,-0.012541082,-0.29316378,0.85089546
7502320000000,-0.11269617,0.12624645,0.059613228,0.0,0.0,0.0,0.4355907,-0.012708645,-0.29322293,0.8509522
7502340000000,-0.059975863,0.009795189,-0.07149792,-0.08781188,-0.017256944,0.012675454,0.43541157,-0.0129986,-0.29420173,0.8507017
7502360000000,-0.058268547,-0.20241356,-0.07162285,-0.0062613687,-0.00076358154,0.005955936,0.4352667,-0.013225717,-0.2947647,0.85057735
7502380000000,-0.026001692,-0.21170902,-0.016221046,0.055436023,0.013897184,-0.0032070426,0.43530622,-0.013137126,-0.29439166,0.8506877
7502400000000,-0.05767846,-0.03768158,-0.08252144,0.06704246,0.022296581,0.004581489,0.43539646,-0.01299704,-0.2937138,0.85087794
7502420000000,-0.048591614,0.0022735596,-0.02575016,0.061391957,0.024892759,0.011911872,0.43538693,-0.012959509,-0.29302183,0.85112196
7502440000000,-0.10339856,0.014827251,0.0030574799,0.0,0.0,0.0,1.0,0.0,0.0,0.0
7502460000000,-0.08084655,0.036070824,-0.009275436,-0.0012217305,-0.00030543262,0.0015271631,0.43536985,-0.013013159,-0.2924143,0.8513387
7502480000000,-0.070976734,0.015510559,-0.031841278,-0.0067195175,-0.0010690142,0.0013744468,0.4353677,-0.013025877,-0.2924984,0.85131073
7502500000000,-0.05956769,-0.009752274,-0.027323723,-0.008857546,0.0018325958,0.003970624,1.0,0.0,0.0,0.0
7502520000000,-0.03888917,-0.0175848,-0.07193756,-0.01038471,0.002443461,0.0032070426,0.4353085,-0.013168297,-0.29264227,0.8512894
7502540000000,-0.037528038,-0.04332018,-0.03982258,0.0012217305,0.0047342055,0.0030543262,0.43529376,-0.013235328,-0.29267317,0.8512854
7502560000000,0.0,0.0,0.0,0.01450805,0.0050396384,0.0,0.43527052,-0.013306247,-0.29260197,0.8513205
7502580000000,0.0,0.0,0.0,0.00076358154,0.00061086525,-0.0010690142,0.4352778,-0.013190585,-0.2924212,0.8513807
7502600000000,-0.114720345,0.09689331,-0.041218758,-0.020463986,-0.007483099,0.0038179078,0.43532538,-0.013224888,-0.29248196,0.85133505
7502620000000,-0.064697266,0.039943695,-0.043649673,-0.06154467,-0.01786781,-0.004581489,0.43523237,-0.013360218,-0.29295948,0.85121614
7502640000000,-0.07648182,-0.06128788,-0.04626274,-0.07498371,-0.016798794,-0.008857546,0.43525103,-0.013485541,-0.29369372,0.8509516
7502660000000,-0.058358192,-0.11478472,-0.03578186,-0.031306844,-0.005192355,-0.009315695,0.43527922,-0.013620766,-0.2942382,0.85074705
7502680000000,-0.063931465,-0.07653141,0.013845444,0.00580322,-0.0015271631,-0.010842858,1.0,0.0,0.0,0.0
7502700000000,-0.045559406,0.05457306,-0.03382778,-0.00870483,0.0016798794,-0.004886922,0.43544698,-0.013594646,-0.2942425,0.85065997
7502720000000,-0.043288946,0.04813528,-0.08641338,-0.031612277,0.0038179078,0.0036651916,0.43545032,-0.013715161,-0.29440287,0.85060096
7502740000000,-0.049773455,-0.006676197,0.033740997,-0.05421429,-0.0013744468,0.0062613687,0.43540624,-0.013931109,-0.29475027,0.8504996
7502760000000,-0.05796647,-0.09857416,0.016482353,-0.04184427,-0.0033597588,0.00076358154,0.4353319,-0.0141887115,-0.29526514,0.85035485
7502780000000,-0.07974625,-0.071704865,-0.11953068,-0.005497787,0.0009162979,-0.0096211275,0.43537053,-0.01428639,-0.29549974,0.850252
7502800000000,-0.099439144,-0.030340195,0.12672901,0.022143865,-0.01572978,-0.01038471,0.43547463,-0.014153422,-0.29532754,0.8502606
7502820000000,-0.06761551,0.0011262894,-0.03984356,-0.03481932,-0.02977968,-0.02687807,0.43551207,-0.013899614,-0.29545516,0.85020137
7502840000000,-0.05639577,0.14218712,-0.15622711,-0.0627664,-0.046883907,-0.01038471,0.43561637,-0.013727954,-0.29609266,0.8499289
7502860000000,-0.04783845,-0.23018026,0.08895779,-0.028863383,-0.044135015,-0.014660766,0.43552303,-0.01355416,-0.29684857,0.8497158
7502880000000,0.0,0.0,0.0,0.020463986,-0.02321288,-0.020463986,0.43557742,-0.0132348295,-0.2969942,0.84964204
7502900000000,-0.030307293,0.06074238,-0.13744545,0.025198191,-0.012217305,-0.013591751,1.0,0.0,0.0,0.0
7502920000000,-0.022519588,-0.09491587,0.0038747787,0.01985312,-0.0050396384,-0.010995574,0.4357562,-0.012690311,-0.29663324,0.8496848
7502940000000,-0.036328793,0.03793335,-0.08784485,0.03390302,0.011911872,-0.006414085,0.4358743,-0.0126058785,-0.29640397,0.8497055
7502960000000,-0.04233718,0.01547575,-0.024686813,0.0061086523,0.01695151,-0.004428773,0.43595052,-0.012648631,-0.29610148,0.84977114
7502980000000,-0.050382376,0.012327194,-0.02999115,-0.017562376,0.02076942,-0.004276057,0.43606332,-0.012818231,-0.2961262,0.8497023
7503000000000,-0.0546453,-0.0176692,-0.032280922,-0.0071776668,0.027947085,0.0061086523,0.43612462,-0.013109237,-0.29613808,0.84966207
7503020000000,-0.06748891,-0.07196474,-0.027379036,0.00045814895,0.024129177,0.0032070426,1.0,0.0,0.0,0.0
7503040000000,-0.04054451,-0.0844655,-0.014228821,0.011453724,0.019394971,0.002443461,0.43620303,-0.013598298,-0.29591802,0.8496909
7503060000000,-0.072924614,-0.11027479,-0.011333466,0.031306844,0.01572978,0.0,1.0,0.0,0.0,0.0
7503080000000,-0.08049464,-0.059146404,-0.039460182,0.04428773,0.0050396384,0.00045814895,0.43628457,-0.013580537,-0.29524606,0.84988314
7503100000000,-0.0610435,-0.02549696,-0.04464245,0.038179077,-0.0053450707,-0.0022907446,0.43628582,-0.013401497,-0.29490072,0.85000515
7503120000000,-0.07812524,0.0005083084,-0.031820297,0.029626964,-0.0065668016,0.0018325958,0.436287,-0.013202914,-0.29464242,0.85009724
7503140000000,-0.041208267,-0.05121088,0.011919975,0.024587326,-0.004886922,0.003970624,0.43623614,-0.013032612,-0.2944516,0.85019207
7503160000000,-0.05634141,-0.016645908,0.041632652,0.027947085,-0.006872234,0.0076358155,0.43619186,-0.012897252,-0.29419932,0.8503042
7503180000000,-0.038173676,0.080195904,-0.12331009,-0.0053450707,-0.006414085,-0.004428773,0.43614396,-0.012801544,-0.29413363,0.8503528
7503200000000,-0.03203845,0.06270599,-0.06513214,-0.04153884,-0.008552114,-0.00030543262,0.43615553,-0.012830063,-0.29438987,0.85025775
7503220000000,-0.030508518,-0.12112045,0.017222404,-0.020922136,0.0032070426,-0.0041233404,0.43614033,-0.01296221,-0.29477245,0.8501311
7503240000000,0.0,0.0,0.0,0.0,0.0,0.0,0.43620595,-0.013082487,-0.2947324,0.8501095
7503260000000,-0.04482007,0.008416176,-0.0059423447,-0.00290161,0.0053450707,0.0033597588,0.43621606,-0.013176743,-0.29464298,0.8501337
7503280000000,-0.034431696,-0.0376997,-0.019616127,-0.008857546,0.0143553335,0.014202617,0.43619695,-0.013283324,-0.29470494,0.85012054
7503300000000,-0.07159853,-0.05970049,0.008824348,-0.008399397,0.0071776668,0.012675454,0.43604892,-0.013697507,-0.2947435,0.85017645
7503340000000,-0.073608875,-0.080246925,-0.031949043,-0.0025961774,0.005192355,0.010231993,0.43596455,-0.013835981,-0.294809,0.8501948
7503360000000,-0.07872629,-0.2025938,0.2917776,0.043066,-0.013897184,0.007330383,0.435905,-0.013684392,-0.29427168,0.850414
7503380000000,-0.09121442,0.044065,-0.11930561,0.0154243475,-0.01740966,-0.019394971,0.4359134,-0.013450313,-0.2941621,0.85045123
7503400000000,-0.02175045,0.15117598,-0.13432312,-0.031154128,-0.021838432,-0.0013744468,0.4359303,-0.013241296,-0.29432523,0.8503893
7503420000000,-0.038789034,-0.14699936,0.005329132,0.0,0.0,0.0,0.435878,-0.013211033,-0.29464072,0.85030746
7503440000000,0.0,0.0,0.0,0.027641652,0.00076358154,0.0013744468,0.43588936,-0.013140171,-0.2944516,0.85036826
7503460000000,-0.0583539,0.08143282,-0.044115067,0.0050396384,-0.0025961774,-0.0061086523,1.0,0.0,0.0,0.0
7503480000000,-0.0071783066,-0.015471935,-0.044098854,-0.0096211275,0.011453724,-0.0016798794,0.43598256,-0.013054103,-0.29434142,0.85036
7503500000000,-0.048586607,-0.033243656,0.0061683655,0.0022907446,0.019547688,0.001985312,0.43601474,-0.0132352775,-0.29425067,0.85037196
