timestamp,accel_x,accel_y,accel_z,gyro_x,gyro_y,gyro_z,rot_w,rot_x,rot_y,rot_z
7448300000000,-0.004086256,-0.029469967,-0.025209427,-0.032070424,-0.007788532,-0.0025961774,0.5557591,-0.06311322,-0.29058602,0.77634287
7448320000000,0.015327692,-0.01579523,-0.05596924,-0.031001411,-0.0047342055,0.00030543262,0.55571467,-0.063231036,-0.29088604,0.77625275
7448340000000,-0.016529322,-0.04092741,-0.035525322,-0.01985312,0.004428773,-0.00045814895,0.55568534,-0.06341139,-0.29111725,0.77617234
7448360000000,0.010653257,-0.10164976,-0.0015058517,0.0027488936,0.0106901415,-0.012064588,0.5557578,-0.063485794,-0.29113057,0.7761094
7448380000000,0.0059702396,-0.033562183,-0.025948524,-0.0036651916,0.01863139,-0.0025961774,0.5558788,-0.06355143,-0.2910348,0.7760533
7448400000000,0.0,0.0,0.0,0.0036651916,0.010537425,-0.012217305,0.5559804,-0.06367265,-0.29095474,0.77600074
7448420000000,0.016628742,-0.047498226,0.006538391,0.00580322,0.01160644,-0.018936822,0.5561614,-0.06366686,-0.29087248,0.7759022
7448440000000,-0.05252123,-0.0084552765,-0.0665369,0.004581489,-0.00045814895,-0.016493361,0.55632156,-0.06366028,-0.2908016,0.7758145
7448460000000,-0.02594757,-0.0038671494,-0.03188324,-0.0021380284,-0.011148291,-0.012217305,0.5564161,-0.063528985,-0.29084238,0.7757422
7448480000000,-0.007822275,-0.029281616,-0.053071022,-0.00061086525,-0.0106901415,-0.005955936,0.5564569,-0.06343436,-0.29095536,0.7756783
7448500000000,-0.006522417,0.009896278,-0.042155266,-0.0038179078,-0.010537425,0.0032070426,0.55642515,-0.06334796,-0.29100925,0.775688
7448520000000,-0.012810707,0.04327011,-0.08788967,-0.016340645,-0.0076358155,0.008857546,0.55635047,-0.063356794,-0.2911437,0.7756904
7448540000000,0.010464907,0.0060796738,-0.03631115,-0.016646078,-0.0027488936,0.011911872,0.5562339,-0.06344921,-0.2913196,0.7757004
7448560000000,0.004417181,-0.030288696,-0.017315865,-0.017715093,0.005497787,0.0076358155,0.5561497,-0.06358978,-0.29143456,0.77570593
7448580000000,-0.019912481,-0.00059747696,-0.05087948,-0.01572978,0.006872234,0.0030543262,0.55612534,-0.063768126,-0.29152545,0.77567476
7448600000000,0.0034823418,-0.011816025,-0.04270363,-0.01160644,0.012675454,0.00076358154,0.55613583,-0.06391255,-0.29159254,0.77563
7448620000000,0.014581203,-0.04645729,-0.022965431,-0.00045814895,0.022296581,-0.0012217305,0.5561873,-0.064091414,-0.29155183,0.7755938
7448640000000,0.019168854,-0.031311512,-0.03205681,0.0038179078,0.02855795,-0.0056505036,0.5562888,-0.064262554,-0.29137003,0.775575
7448660000000,-0.03064251,-0.021574497,-0.055659294,0.0038179078,0.01786781,-0.0038179078,0.5564302,-0.064437896,-0.2912116,0.77551854
7448680000000,0.009507179,-0.03746128,-0.02531147,0.01038471,0.01160644,0.0021380284,0.55646455,-0.064488366,-0.29109454,0.7755336
7448700000000,-0.028942823,-0.013908863,-0.054912567,0.0038179078,0.006414085,0.00290161,0.55647904,-0.0645339,-0.29096195,0.7755692
7448720000000,-0.02699256,0.053094387,-0.08605337,-0.009162978,-0.008093964,0.0038179078,0.55645055,-0.064552054,-0.2909858,0.7755792
7448740000000,0.0029985905,-0.028483868,-0.00967598,-0.019547688,-0.009162978,0.007330383,0.55636626,-0.0645622,-0.29118523,0.77556396
7448760000000,0.03178954,-0.01048708,-0.039198875,-0.016646078,0.005192355,0.008246681,0.5562845,-0.06466463,-0.29135743,0.7755494
7448780000000,0.017917156,0.028505325,-0.0637579,-0.022907447,0.01450805,0.012064588,0.5562379,-0.064890556,-0.29141867,0.7755411
7448800000000,0.022164106,-0.037842274,-0.03776741,-0.022602014,0.025198191,0.013286319,0.55617535,-0.06523872,-0.29152533,0.7755165
7448820000000,-0.012661219,-0.09391928,-0.03421688,0.010079277,0.03176499,0.013591751,0.5561527,-0.06557023,-0.29141182,0.77554744
7448840000000,0.004228115,-0.04976225,-0.051389694,0.023518313,0.03313944,0.007330383,0.5561785,-0.06573684,-0.29104057,0.77565426
7448860000000,-0.05682254,0.008115292,-0.05141449,0.025350908,0.017256944,0.0065668016,0.55624115,-0.065838166,-0.29069066,0.77573204
7448880000000,0.0015425682,-0.03797674,0.013420105,0.029321533,0.016493361,0.00045814895,0.556252,-0.06578616,-0.2904106,0.77583355
7448900000000,-0.055272102,0.074551105,-0.07592392,0.016493361,0.0061086523,-0.0050396384,0.55635214,-0.0657529,-0.29009658,0.775882
7448920000000,-0.046752214,0.13930559,-0.028107643,-0.02687807,-0.023823744,-0.0047342055,0.55637103,-0.065657966,-0.29017568,0.77584696
7448940000000,-0.013128519,0.0053219795,-0.016485214,-0.04810564,-0.024281893,-0.00290161,0.55628914,-0.06568593,-0.29071707,0.7757007
7448960000000,-0.023030758,-0.0027475357,-0.08532047,-0.05085453,-0.02275473,-0.00290161,0.55621475,-0.06578285,-0.29121834,0.77555776
7448980000000,-0.028866053,0.058601856,-0.017112732,-0.07651087,-0.035888333,-0.0025961774,0.55611885,-0.06590839,-0.29185143,0.7753778
7449000000000,-0.034609795,-0.05558443,-0.01937294,-0.07788532,-0.041996986,-0.0065668016,0.55596584,-0.06605816,-0.29275048,0.7751359
7449020000000,0.0076453686,-0.06719303,-0.074463844,-0.0664316,-0.04016439,-0.032375857,0.5558815,-0.06610186,-0.29354784,0.77489096
7449040000000,0.0021750927,0.015807152,-0.07577133,-0.06963864,-0.044135015,-0.023060163,0.5560251,-0.06603162,-0.29431236,0.7745039
7449060000000,0.03934002,-0.06696558,0.024964333,-0.052839845,-0.03191771,-0.02107485,0.55601203,-0.06600678,-0.29507717,0.7742244
7449080000000,0.03657174,-0.059019566,-0.018457413,-0.03863723,-0.0022907446,-0.009010263,0.55605656,-0.06605433,-0.29551014,0.7740232
7449100000000,-0.07515192,0.15461731,-0.12692833,-0.03756821,-0.022602014,-0.002443461,0.5560944,-0.066394515,-0.29572064,0.77388644
7449120000000,0.060694218,-0.08080053,0.26468754,-0.089186326,-0.035430185,0.009315695,0.55581117,-0.066568464,-0.29644474,0.77379787
7449140000000,0.016782045,0.04956627,-0.20921087,-0.04337143,0.009162978,0.023823744,0.555653,-0.06714343,-0.29719353,0.77357453
7449160000000,-0.1250968,-0.0047769547,0.024683475,-0.027488936,-0.036957346,0.036193766,0.55531573,-0.067386985,-0.2973129,0.77374965
7449180000000,0.06240058,-0.020161629,0.054894924,-0.0759,-0.023365596,0.019089539,0.55496854,-0.06737205,-0.29797623,0.77374494
7449200000000,-0.12131071,0.017922878,-0.1431117,-0.052839845,-0.036957346,0.034972034,0.5546503,-0.067663826,-0.29862222,0.7736985
7449220000000,0.0046744347,0.0012435913,0.06587076,-0.09040806,-0.04841107,0.018478673,0.5542534,-0.0677131,-0.29930225,0.773716
7449240000000,-0.076233625,0.13471508,-0.087316036,-0.13836098,-0.07086037,0.028252518,0.55385303,-0.06807142,-0.3005781,0.77347654
7449260000000,-0.009840012,0.004579067,0.047468185,-0.15989397,-0.093004234,0.032070424,0.5532369,-0.06826153,-0.30219775,0.77326965
7449280000000,-0.007870913,0.1126194,-0.10484266,-0.19746219,-0.0786489,0.024740042,0.55263644,-0.0687337,-0.30407554,0.77292085
7449300000000,-0.093122244,0.15959549,-0.16052389,-0.27931812,-0.09392053,0.030085113,0.5272704,-0.059807688,-0.30820522,0.7895686
7449320000000,-0.008010864,-0.034365177,0.22236156,-0.111941054,-0.1881465,0.0032070426,0.5265909,-0.060546108,-0.31077546,0.78895813
7449340000000,0.5531354,-0.7951436,0.06560516,-0.20112738,0.07544186,0.023365596,0.488859,-0.045749772,-0.31457436,0.81238353
7449360000000,-0.69907737,0.9634204,-1.0341315,-0.029626964,-0.1244638,0.013439035,0.48958924,-0.04715137,-0.31482813,0.81176496
7449380000000,0.43328643,-0.5510726,1.1269798,-0.2501493,-0.07147124,0.0290161,0.46138114,-0.03586179,-0.31839567,0.8273244
7449400000000,-0.07088828,0.16263294,-0.38159323,-0.08781188,0.06536258,0.02031127,0.46176192,-0.03730511,-0.3198467,0.8264881
7449420000000,-0.14674497,-0.020685673,-0.32390165,-0.13881913,-0.056505036,0.00076358154,0.44156957,-0.030311987,-0.32100153,0.8372907
7449440000000,0.22150946,-0.18745565,0.37943172,-0.14889841,-0.020158553,0.009162978,0.44162062,-0.0302932,-0.3227452,0.8365938
7449460000000,0.046095133,-0.15118217,-0.27156544,0.04841107,0.087964594,0.049785517,0.42619354,-0.025667973,-0.32379007,0.8443106
7449480000000,-0.112639904,0.034585,-0.38116312,0.023060163,0.05589417,0.01786781,0.4263528,-0.026129475,-0.3223968,0.8447489
7449500000000,0.06702471,-0.33229208,0.6039386,0.0025961774,-0.039553523,0.0062613687,0.41407937,-0.021443032,-0.3229923,0.85073763
7449520000000,0.39298797,-0.27833652,-0.713398,0.20372356,0.2706133,0.025961773,0.41404194,-0.022273632,-0.32237116,0.85097015
7449540000000,-0.50469565,0.05512476,0.12394905,0.27076602,0.07849618,0.042913284,0.40476266,-0.018796278,-0.3180413,0.8571252
7449560000000,0.34767914,0.16978598,0.3645277,0.03390302,0.049938235,-0.044593163,0.40482733,-0.01892863,-0.31736276,0.8573434
7449580000000,-0.22389555,0.18306589,-0.5665245,0.129198,0.12583824,0.055741455,0.39707983,-0.016948177,-0.31720185,0.8610595
7449600000000,0.08261752,-0.3782277,0.21682596,0.12858713,0.09743301,-0.01740966,0.39703247,-0.016715558,-0.31450176,0.8620757
7449620000000,-0.12844062,0.1037097,0.12606049,-0.050549097,0.006414085,-0.0290161,0.3930276,-0.015241967,-0.31411448,0.86407703
7449640000000,-0.17219388,0.047302246,-0.12142897,0.0852157,-0.022602014,-0.01038471,0.39303124,-0.015699755,-0.31505156,0.863726
7449660000000,0.090862274,-0.09666157,0.15121841,0.06490443,0.04046982,-0.033444874,0.39242205,-0.014715183,-0.31374842,0.8644942
7449680000000,-0.26727533,0.2581048,-0.12570429,-0.17928895,-0.08552113,-0.043829583,0.39278784,-0.014411753,-0.3138002,0.86431444
7449700000000,-0.061323404,-0.03309965,0.19692373,-0.19349156,-0.19150625,-0.04505131,0.39177108,-0.013616856,-0.31674173,0.86371565
7449720000000,-0.049340725,-0.17409277,0.28567696,-0.15882497,-0.1301143,-0.037110064,0.3915841,-0.01303298,-0.31907848,0.862949
7449740000000,-0.27730703,-0.027990341,0.013818741,-0.3213151,-0.24724771,-0.077121735,0.39034396,-0.01166649,-0.32132462,0.86269695
7449760000000,-0.0017154217,-0.25601244,0.27712297,-0.45906523,-0.31948254,-0.122783914,0.3901457,-0.0099011455,-0.3260948,0.86101717
7449780000000,0.12392187,-0.28512287,0.11212921,-0.345597,-0.19394971,-0.116980694,0.38964057,-0.009005638,-0.33126158,0.85928166
7449800000000,0.062372684,-0.25938463,0.029214859,-0.2564107,-0.13103059,-0.17959438,0.39034992,-0.008430257,-0.33411917,0.857858
7449820000000,0.109274626,-0.36593723,0.2539611,-0.25686884,-0.12858713,-0.24785857,0.39165252,-0.0072644106,-0.3366447,0.85628605
7449840000000,-0.22257471,-0.6760349,0.40893936,0.021227567,0.044135015,-0.14294247,0.39334396,-0.006609113,-0.338702,0.85470337
7449860000000,0.34259582,-0.340796,0.060380936,0.56077427,0.3126103,-0.057421334,0.3943885,-0.0069335094,-0.3349453,0.8556993
7449880000000,0.55319905,-0.2699604,-0.040636063,0.74296486,0.3098614,-0.09162979,0.39623675,-0.006586244,-0.327426,0.857756
7449900000000,0.61070967,-0.2896638,0.12891054,0.5881105,0.15317446,-0.30176744,0.39788762,-0.005335401,-0.31974763,0.8598945
7449920000000,0.4363482,-0.15640116,0.22770071,0.08246681,0.004276057,-0.47815478,0.40192166,-0.0030483317,-0.31696716,0.85905844
7449940000000,0.259058,-0.5886502,0.40235138,-0.08475755,-0.05971208,-0.54641896,0.4051447,-0.0009002459,-0.31790024,0.8572027
7449960000000,0.44195557,-1.0642667,0.5049434,-0.11759156,-0.104610674,-0.6458373,0.41004497,0.0011822075,-0.31933454,0.8543343
7449980000000,0.34648466,-1.3135781,0.56401396,-0.110872045,-0.17180584,-0.6936375,0.41420245,0.0044776117,-0.32101125,0.8516855
7450000000000,0.33509016,-1.320231,0.5082493,-0.08323039,-0.1947133,-0.73884153,0.41966033,0.007915578,-0.32267302,0.84835404
7450020000000,0.24511671,-1.0820522,0.38826513,-0.08659015,-0.25457808,-0.8200866,0.42404836,0.012440153,-0.3241251,0.84555966
7450040000000,1.0628197,-1.140276,0.64079,-0.1328632,-0.5833763,-1.1168144,0.43104368,0.018933801,-0.32614997,0.84111184
7450060000000,-0.44054198,-1.0041013,0.27721453,-0.3733914,-0.52396965,-0.99021256,0.43673873,0.026578251,-0.33122593,0.83596796
7450080000000,0.22453594,-1.4276185,0.36129093,-0.35827246,-0.5193882,-1.237613,0.44394425,0.03293178,-0.33638975,0.82986206
7450100000000,0.11355615,-0.8900032,0.4543152,-0.40332377,-0.49541172,-1.3112222,0.4530079,0.039952893,-0.34120288,0.82265925
7450120000000,-0.15549088,-0.39536524,0.4413042,-0.6275113,-0.50533825,-1.3797919,0.4623364,0.046365246,-0.34681952,0.8147463
7450140000000,0.012909889,-0.2867651,0.6602855,-0.88025683,-0.56337047,-1.5120442,0.47258967,0.05203194,-0.35496494,0.80495447
7450160000000,0.15825462,-0.63683987,1.0181789,-0.97158116,-0.5865834,-1.6276505,0.48357886,0.057784654,-0.36457065,0.7936628
7450180000000,0.29276848,-0.7293587,1.4458241,-0.9647089,-0.6056729,-1.7085901,0.49517867,0.06380488,-0.37410587,0.78151894
7450200000000,0.22840309,-0.45097208,1.5862064,-0.97524637,-0.6420194,-1.7722728,0.5069607,0.07039734,-0.38335982,0.76881087
7450220000000,0.1438775,-0.5109658,1.3726244,-1.0279335,-0.7487681,-1.8860464,0.5189866,0.07751446,-0.39316738,0.7550256
7450240000000,0.19580221,-0.90195847,1.2799735,-0.9126327,-0.83016586,-1.9601139,0.53108495,0.08595039,-0.40334076,0.7401875
7450260000000,0.2764845,-0.9511509,1.6095037,-0.6097962,-0.88529646,-1.9802724,0.54275334,0.096084565,-0.4117718,0.72569317
7450280000000,-0.016700268,-0.59174776,1.6925421,-0.30925053,-0.93294394,-1.9730947,0.55360734,0.10852136,-0.4176977,0.71222943
7450300000000,-0.43544817,0.12914896,1.141737,-0.25427267,-0.95478237,-1.9373591,0.56383014,0.12204299,-0.42166495,0.6995711
7450320000000,-0.6666608,0.74234986,0.44159746,-0.45891252,-1.02549,-1.9086485,0.5734608,0.13515031,-0.42674613,0.6861231
7450340000000,-0.5975766,0.20647001,0.053777695,-0.74128497,-1.0995574,-1.9098701,0.58262104,0.14702742,-0.43451455,0.67091936
7450360000000,-0.76198244,-0.34633732,0.11857176,-0.74281216,-1.0587822,-1.8994855,0.5916696,0.15779084,-0.44352672,0.6544565
7450380000000,-0.89380455,0.10020542,0.07010937,-0.5890268,-0.99189246,-1.8579466,0.6003097,0.16882627,-0.45067728,0.6387612
7450400000000,-0.5571604,0.58193874,-0.21284342,-0.66614854,-0.9819659,-1.8536706,0.6085233,0.17989118,-0.45702884,0.62326825
7450420000000,-0.09037495,0.66957784,-0.8046403,-0.86086184,-0.85902923,-1.808772,0.61688983,0.18950553,-0.46409672,0.60675275
7450440000000,-0.16135597,0.44942403,-1.0099792,-1.0821478,-0.6414085,-1.7463111,0.625856,0.19617657,-0.47113463,0.5897892
7450460000000,-0.63889694,0.41702342,-0.81797075,-1.432479,-0.4512767,-1.7055358,0.63584155,0.1994866,-0.47831866,0.5719458
7450480000000,-0.7253847,0.70111465,-0.6045406,-1.8413006,-0.32604933,-1.648878,0.64679134,0.19906919,-0.4865681,0.55252504
7450500000000,-0.29121113,0.5860789,-0.8713312,-2.1702516,-0.2275473,-1.5937474,0.6582984,0.19503458,-0.496339,0.53127444
7450520000000,0.15428448,0.2959051,-0.9534888,-2.168419,-0.027641652,-1.4995215,0.6697808,0.18879439,-0.506271,0.5093527
7450540000000,-0.11751938,-0.24367237,-0.867219,-1.9107865,0.22953261,-1.4471397,0.68140423,0.18165916,-0.5131816,0.48921657
7450560000000,-0.7903652,-0.9018464,-0.9121139,-1.5642731,0.32528573,-1.4434745,0.69260645,0.17532063,-0.5171716,0.47126698
7450580000000,-0.618186,-0.95810485,-1.1536953,-1.1522446,0.37614027,-1.3880385,0.7024499,0.17102218,-0.51971436,0.455206
7450600000000,0.18907928,-0.39177513,-0.8278527,-0.79229224,0.5190827,-1.315651,0.7041541,0.16830905,-0.5309283,0.4404024
7450620000000,0.12100029,-0.13094783,-0.38802218,-0.42439863,0.70280045,-1.2481505,0.71400434,0.16818835,-0.5269111,0.42927286
7450640000000,-0.5236807,0.10355282,-0.5298908,-0.19547687,0.71883565,-1.1527027,0.72340655,0.1695287,-0.52054614,0.42068368
7450660000000,-0.37010574,0.68748003,-0.70524025,-0.19700404,0.71959925,-1.0629056,0.73188114,0.17117132,-0.51417583,0.41312674
7450680000000,-0.16530323,1.1253693,-0.40816545,-0.3924809,0.75915277,-0.9586003,0.74051017,0.17219995,-0.50788045,0.40502992
7450700000000,-0.6876774,1.2916806,0.31900597,-0.6291912,0.7296785,-0.7846564,0.74996233,0.17095546,-0.50114554,0.3964645
7450720000000,-0.70628834,1.4211823,0.20101929,-0.85139346,0.6740898,-0.6270532,0.75821173,0.16694756,-0.4965292,0.3882039
7450740000000,-0.25287342,0.7384115,0.05581951,-0.9111055,0.6430884,-0.5569564,0.7652091,0.16020627,-0.4942384,0.38015428
7450760000000,0.017935753,0.062216043,-0.14196253,-0.7180721,0.6656904,-0.48609602,0.77163434,0.15397884,-0.49158216,0.37311938
7450780000000,-0.10452938,0.24783123,-0.32568312,-0.71669763,0.6783658,-0.40943244,0.77757657,0.14855275,-0.4881098,0.36749902
7450800000000,-0.19884968,-0.13445318,-0.63909006,-0.80924374,0.68462723,-0.3849978,0.78337437,0.14186801,-0.48512438,0.36173522
7450820000000,0.034938812,-0.7595562,-0.7703028,-0.7005097,0.7800749,-0.40759984,0.78142804,0.1291945,-0.4943609,0.35817087
7450840000000,0.09069729,-0.83693206,-0.29376793,-0.6730208,0.8237518,-0.4382958,0.7877061,0.12320793,-0.4896734,0.35292915
7450860000000,-0.47385597,0.39775932,0.6845479,-0.6637051,0.7189884,-0.3529274,0.8054498,0.11953481,-0.46450436,0.34813473
7450880000000,-0.2602582,0.14140487,0.5939913,-0.88254756,0.59559363,-0.39080104,0.8105147,0.113010585,-0.4613818,0.342668
7450900000000,-0.5686865,-0.17920029,0.9899645,-0.6834055,0.49434268,-0.3297145,0.8157998,0.10517212,-0.45865348,0.3362241
7450920000000,-0.09755087,0.42209816,0.9231777,-0.5296202,0.4361578,-0.322995,0.8194525,0.1007748,-0.45625538,0.33192343
7450940000000,0.10195446,0.37168932,1.2837877,-0.4392121,0.34116822,-0.32375857,0.8228204,0.09689951,-0.45439023,0.3272714
7450960000000,0.0481596,-0.3329246,0.96930933,-0.3408628,0.27855456,-0.30955598,0.8255511,0.09417932,-0.45290864,0.32321742
7450980000000,-0.21054792,0.12139404,0.58448744,-0.32085696,0.23060162,-0.27550024,0.827905,0.09239822,-0.45139456,0.31981063
7451000000000,-0.16961098,0.17054224,-0.17612982,-0.5920811,0.16371189,-0.27107146,0.82999825,0.08941949,-0.450968,0.31580845
7451020000000,-0.1430254,-0.5213965,-0.6378064,-0.6751588,0.19043724,-0.2603813,0.8321318,0.084231354,-0.45169973,0.31053036
7451040000000,-0.23509455,-0.8418269,-0.9467306,-0.50915617,0.28115073,-0.26313022,0.8343879,0.07940218,-0.45163417,0.30580813
7451060000000,-0.96287966,-0.9626044,-0.50069904,-0.16600263,0.3361286,-0.18570304,0.83687764,0.076378554,-0.4498253,0.3024226
7451080000000,-1.3239622,-0.788103,-0.27964973,0.2761111,0.29840767,-0.083383106,0.8386595,0.07659786,-0.44674277,0.30199966
7451100000000,-1.276237,-0.15901542,-0.28510284,0.54458636,0.29703322,-0.02321288,0.83967775,0.07991788,-0.4428026,0.30410558
7451120000000,-1.3718038,0.92051065,-0.24499035,0.43508878,0.28848112,-0.013439035,0.8405859,0.08397686,-0.43849942,0.30672723
7451140000000,-1.6991725,2.081134,0.3439474,0.124769226,0.26526824,0.08032878,0.84159774,0.085227035,-0.4352756,0.30819598
7451160000000,-1.5586557,1.563272,-0.15470839,-0.29168814,0.14645495,0.085673854,0.842272,0.083525404,-0.43355882,0.30923814
7451180000000,-0.7689619,0.8966571,-0.38434076,-0.43218717,0.098043874,0.18463401,0.8428262,0.07899104,-0.43435007,0.30780613
7451200000000,-0.41384983,0.5645369,-0.10787964,-0.102319926,0.07238753,0.33536503,0.84244823,0.07454541,-0.4349069,0.30915993
7451220000000,-0.75084114,-0.25056875,-0.37935257,0.081397794,0.089949906,0.13713925,0.84189886,0.073624656,-0.43430606,0.31171155
7451240000000,-1.4784594,-0.929906,-0.7264495,0.30024028,-0.09132435,0.08964448,0.8417483,0.074634425,-0.43345252,0.31306317
7451260000000,-0.41730976,-0.38253713,-0.943872,0.35460728,-0.1910481,0.04917465,0.84028906,0.078282535,-0.43395832,0.3153827
7451280000000,0.36739445,0.7205702,-0.6579671,0.22021692,-0.09025534,-0.021533,0.8392492,0.08182787,-0.43464437,0.3163057
7451300000000,0.16619778,0.8957829,-0.7779331,-0.0030543262,-0.046578474,-0.038789943,0.83903074,0.083459,-0.4347668,0.3162907
7451320000000,0.09434605,0.7998694,-0.9452257,-0.32803464,-0.058184914,-0.06505715,0.8390451,0.08254336,-0.43577278,0.3151067
7451340000000,0.1763277,0.56159335,-0.86732864,-0.6214027,0.022449298,-0.076052725,0.8395959,0.07873274,-0.4376013,0.31206575
7451360000000,0.13921547,-0.26509476,-0.077102184,-0.4709771,-0.02855795,-0.01817324,0.8404116,0.073375635,-0.43935812,0.30868885
7451380000000,0.2618394,-0.56535935,0.56693363,-0.14065172,0.01817324,-0.005192355,0.8402192,0.07124467,-0.44075668,0.30771643
7451400000000,-0.016308784,-0.19337547,0.5973854,-0.036957346,0.28160888,-0.15867224,0.8412411,0.07087633,-0.43936762,0.3069952
7451420000000,-0.6581254,-0.30941617,0.8486371,-0.027030786,0.15714508,-0.14095716,0.84377414,0.069488674,-0.43540075,0.30601117
7451440000000,-0.46263027,-0.58327186,-0.37526417,-0.011301007,0.10720685,-0.11636983,0.84450305,0.069866315,-0.43469185,0.3049202
7451460000000,-0.042876244,-0.4852711,-1.020021,0.067500606,0.26450464,-0.10934488,0.84550583,0.06969965,-0.43321928,0.30427444
7451480000000,-0.32741928,-0.48618078,-0.1842823,0.1441642,0.313832,-0.15149458,0.8472662,0.07038453,-0.42990428,0.30392188
7451500000000,-0.789567,0.3512063,0.459301,0.011148291,0.19028452,-0.07620544,0.8488181,0.071085095,-0.42705238,0.30344874
7451520000000,-0.20227003,1.1495878,0.6105838,-0.22143865,0.025809057,0.019394971,0.8530074,0.07701484,-0.4195519,0.3007048
7451540000000,0.06263018,0.8278393,0.69447184,-0.18310685,-0.0346666,0.058184914,0.8529906,0.07444959,-0.4206151,0.29991218
7451560000000,-0.27170372,0.06019473,0.8264866,0.0954477,-0.1600467,0.0571159,0.8524924,0.07409576,-0.4214586,0.30023196
7451580000000,-0.9511485,1.3749346,0.19116402,-0.05879578,-0.20051652,0.21578814,0.8513926,0.07607541,-0.4225868,0.30127007
7451600000000,-1.8965006,3.3445399,0.50657606,-0.5465717,-0.27763826,0.5332854,0.8497702,0.07295804,-0.4250891,0.30309576
7451620000000,-1.4857349,3.9272013,0.12488508,-1.2460123,-0.49006665,0.81199265,0.8467863,0.064026915,-0.43135437,0.30460966
7451640000000,0.20019817,3.3628426,0.18162298,-1.8127426,-0.5028948,1.0940597,0.8446191,0.058626555,-0.43832836,0.30174458
7451660000000,-0.15693283,1.6361433,0.029232025,-2.0444133,-0.32238412,1.3060299,0.84250236,0.06017334,-0.446353,0.29552987
7451680000000,-1.6269703,0.89733136,-0.9369459,-2.2693644,-0.4147775,1.502423,0.83800673,0.036543462,-0.4559405,0.2975361
7451700000000,-1.7070794,-0.09755039,-1.7884603,-2.4152086,-0.5684101,1.5166256,0.83145165,0.011183029,-0.46781245,0.29952398
7451720000000,-1.5289655,-1.5164685,-1.2635243,-2.359467,-0.49648073,1.4624114,0.8242892,-0.014427571,-0.47986796,0.30010977
7451740000000,-1.8820829,-2.5195408,-0.048647404,-2.0581577,-0.56306505,1.3665055,0.81676424,-0.043221682,-0.4891495,0.30292067
7451760000000,-2.6998858,-3.8840566,0.5269706,-1.6986635,-0.75625116,1.2460123,0.8057425,-0.08272101,-0.49710527,0.31116334
7451780000000,-2.355362,-5.036442,-0.16737413,-1.3154984,-0.7707592,1.1119275,0.79668033,-0.09822212,-0.50704616,0.31393778
7451800000000,-2.220828,-4.163081,0.9638128,-0.7165449,-0.8549059,1.0044152,0.78830695,-0.109188244,-0.5155381,0.31760138
7451820000000,-2.5763555,-1.7167087,-0.06471038,-0.34162638,-0.7796168,1.1814134,0.78005755,-0.115028575,-0.5224663,0.32451153
7451840000000,-3.760343,-0.028409004,0.5703945,0.16661349,-0.7852673,1.6038266,0.7715438,-0.12115549,-0.52684635,0.33537224
7451860000000,-4.0318418,-0.057294846,0.8288646,1.0616838,-1.0193814,1.9770653,0.76125073,-0.12284377,-0.52936214,0.3538112
7451880000000,-3.68789,-0.5633526,0.042169333,1.717753,-0.9370673,2.151162,0.7497074,-0.1189298,-0.52911776,0.3792479
7451900000000,-4.0897164,-0.5530472,-1.0407588,1.9408716,-0.6711882,2.074193,0.73917055,-0.11254574,-0.5251273,0.40645003
7451920000000,-5.2127438,-0.47521353,-2.171634,1.8487836,-0.38621956,2.0879374,0.73002046,-0.106956065,-0.51851875,0.4321677
7451940000000,-6.0775003,-0.38707685,-1.9460812,1.5283848,-0.3155119,2.1294763,0.72089946,-0.10441936,-0.51069665,0.45671606
7451960000000,-6.045351,-0.54466295,-0.9205935,1.0737484,-0.5021312,2.0774,0.7103648,-0.104305334,-0.5053083,0.47871256
7451980000000,-5.12597,-1.2107968,-0.08171725,0.728915,-0.5878051,2.0202842,0.6982459,-0.10594692,-0.5031557,0.49805862
7452000000000,-4.255045,-1.9444747,0.38472676,0.57925296,-0.552833,1.8234328,0.6860045,-0.10911518,-0.5020757,0.5151812
7452020000000,-4.320681,-2.0635228,0.46183228,0.5317582,-0.569021,1.6604844,0.6741215,-0.11427768,-0.5006457,0.53090006
7452040000000,-4.0380273,-1.842689,0.5639312,0.48487428,-0.9589057,1.5549575,0.65989023,-0.12437585,-0.4987677,0.548002
7452060000000,-3.4249353,-1.3491807,0.47158027,0.32436943,-1.3523029,1.4362969,0.64537704,-0.12455051,-0.5021939,0.56194025
7452080000000,-3.080098,-0.6596799,0.13682365,0.008246681,-1.619862,1.3796391,0.6299989,-0.12182095,-0.5091747,0.5735871
7452100000000,-3.142645,-0.8994417,0.9452634,-0.26007587,-1.9341521,1.4217888,0.6121827,-0.12171867,-0.5190398,0.5839645
7452120000000,-2.8138533,-1.6643658,1.9745736,-0.055588737,-2.4814873,1.4961617,0.59165925,-0.11827785,-0.5318212,0.59423566
7452140000000,-1.7700586,-1.8478541,1.4832206,0.26725355,-2.9465084,1.502423,0.56766325,-0.10876812,-0.5454319,0.606986
7452160000000,-0.939888,-0.5876236,0.11805344,0.24938573,-3.0920472,1.5528195,0.5407681,-0.096872,-0.56114674,0.6191123
7452180000000,-0.92560816,0.2815504,-0.8452401,-0.17730364,-3.170696,1.6821702,0.512999,-0.08596928,-0.57583374,0.63075906
7452200000000,-1.0871558,0.13631439,-0.5052937,-0.45372015,-3.2285755,1.9511036,0.4824604,-0.07829553,-0.5931056,0.63978714
7452220000000,-0.579185,-1.0414724,0.09375286,-0.3303254,-3.257439,2.1520782,0.44902474,-0.072134465,-0.60992044,0.6489765
7452240000000,-0.20104408,-1.9329605,1.0644317,-0.0030543262,-3.138931,2.2579107,0.41458535,-0.0657373,-0.6235256,0.65955544
7452260000000,-0.5428791,-1.3542786,1.5682892,0.6087272,-3.0857859,2.3774874,0.38011366,-0.058624372,-0.6323467,0.6724689
7452280000000,-0.25059938,-0.26149273,-0.08912358,1.0680978,-3.0517302,2.6422975,0.34253386,-0.04929761,-0.6432442,0.6829913
7452300000000,1.4642887,0.3517704,-2.1135242,0.5271767,-2.5638015,2.8496864,0.30533096,-0.043131843,-0.645809,0.6984579
7452320000000,2.7516766,0.8342695,-2.3921404,-0.96761054,-1.701107,2.8307495,0.2714724,-0.04708262,-0.652323,0.70608836
7452340000000,2.187507,0.30072212,-0.6077403,-1.8584048,-1.0580186,2.8150198,0.24303196,-0.060618635,-0.66678953,0.7018922
7452360000000,0.4999683,-3.2352533,0.2080934,-1.4850134,-0.841925,2.7149906,0.21652383,-0.07767602,-0.6801091,0.69608593
7452380000000,-0.5084845,-5.5138187,-0.7241948,-0.64904433,-0.7684685,2.5573874,0.19213112,-0.09228332,-0.68655545,0.6951338
7452400000000,0.40239477,-4.2942657,-1.33888,-0.4718934,-0.59773165,2.4452937,0.16962312,-0.104980245,-0.6879401,0.6978148
7452420000000,1.556049,-1.5587149,-1.1156574,-0.86269444,-0.12385293,2.31747,0.15003999,-0.120022304,-0.69038516,0.6974604
7452440000000,1.4466224,-1.6646557,0.054224372,-0.6719518,0.50518554,2.1464279,0.13492604,-0.13837321,-0.6937096,0.6938407
7452460000000,0.16667372,-4.4792233,1.0410228,0.27565295,0.78877974,1.7679968,0.12622069,-0.15779899,-0.6916341,0.6934047
7452480000000,-0.7244463,-5.340705,0.54103494,1.0596985,0.732122,1.3362677,0.12258779,-0.17272817,-0.6823499,0.6996683
7452500000000,-0.32075155,-3.5831108,0.15321761,1.1806498,0.70264775,1.024421,0.12159671,-0.18372814,-0.6706192,0.7083278
7452520000000,0.32566234,-1.923439,0.25008798,0.907593,0.7997753,0.77931136,0.12232995,-0.19340856,-0.6604303,0.71516466
7452540000000,0.19823831,-1.8488331,1.3292571,0.6751588,0.82451534,0.58184916,0.12473604,-0.20292945,-0.6528134,0.71909344
7452560000000,-0.20103943,-1.7856035,2.3623736,0.86834496,0.6053675,0.46517387,0.12747078,-0.2106354,-0.6459383,0.72259796
7452580000000,0.061046958,-1.1521463,2.617951,1.270447,0.35521814,0.3539964,0.12966615,-0.21516486,-0.6366312,0.72910327
7452600000000,0.5398575,-1.5101995,1.8385108,1.410946,0.25809056,0.026419923,0.13284963,-0.21661861,-0.6252328,0.7379101
7452620000000,-0.08076215,-2.571126,1.2945218,1.3066407,0.23411411,-0.29794952,0.13875507,-0.21527404,-0.6153297,0.74550223
7452640000000,-1.0894701,-1.6600952,1.6554935,1.2589933,0.17547104,-0.31413746,0.14555727,-0.21284884,-0.6060998,0.75243044
7452660000000,-1.1762848,0.15718555,2.1640992,0.93844175,0.047647487,-0.27351493,0.15085988,-0.21036965,-0.597853,0.75865525
7452680000000,-0.7290454,1.2188921,2.363973,0.514654,-0.025809057,-0.25442538,0.15415926,-0.20761864,-0.59245384,0.7629732
7452700000000,-0.37427747,1.1654634,1.9213616,0.23243423,0.026267206,-0.21762075,0.15706398,-0.2059659,-0.5904228,0.7644017
7452720000000,-0.26389277,0.8184843,1.1582303,0.01863139,0.12003502,-0.17272215,0.15921097,-0.20526323,-0.58992815,0.76452845
7452740000000,-0.5138021,0.6343193,0.76848125,-0.08475755,0.21868975,-0.11499538,0.16927865,-0.2120507,-0.5882445,0.76180553
7452760000000,-0.88539404,0.83106136,0.77736545,0.008552114,0.32604933,0.005955936,0.17122258,-0.2139791,-0.58853394,0.7606074
7452780000000,-0.84583616,1.0191927,0.6319484,0.22724187,0.41523564,0.11102476,0.17527635,-0.21876393,-0.58619523,0.76012886
7452800000000,-0.73259896,0.6529169,0.23306644,0.59437186,0.46318856,0.12812899,0.17767338,-0.22233276,-0.58217955,0.7616216
7452820000000,-0.8283124,0.05290222,-0.47776556,1.1840096,0.58169645,0.16432275,0.18199006,-0.23927633,-0.5853689,0.752974
7452840000000,-0.7848484,0.55981636,-0.77826667,1.6865989,0.77839506,0.2415972,0.18784647,-0.24316755,-0.5725626,0.7601022
7452860000000,-0.56733525,1.608923,-1.1333417,1.7336355,0.9605856,0.2855795,0.19523616,-0.24804543,-0.5563782,0.7686349
7452880000000,-0.64649737,2.1474485,-1.2531769,1.5236506,1.067487,0.3483459,0.20261511,-0.2546096,-0.54094124,0.7755666
7452900000000,-0.97783697,1.9987869,-1.1491414,1.6256652,1.1264355,0.48624873,0.20910911,-0.26224205,-0.5262251,0.78140247
7452920000000,-0.6998811,2.0557575,-1.393976,2.1444426,1.3214543,0.68111473,0.21557845,-0.27103847,-0.50755876,0.7889539
7452940000000,-0.8013308,1.636673,-0.7483194,2.8527408,1.1795808,0.72219545,0.21941984,-0.27778095,-0.48404065,0.8002483
7452960000000,-2.2081275,-1.3148718,2.4324315,3.804316,0.5555819,0.53985214,0.22733377,-0.28056607,-0.45292038,0.8151474
7452980000000,-1.2252116,-6.1234894,7.5485716,4.917465,0.76159626,0.13179417,0.22775507,-0.27017128,-0.4189813,0.8364149
7453000000000,-0.8499453,-7.261795,6.0350137,5.8769817,1.3814718,-0.15943582,0.24751137,-0.26660004,-0.3685999,0.8554512
7453020000000,-0.9743154,-0.7226157,1.6473193,5.380043,1.3205379,-0.26542094,0.2566419,-0.2582309,-0.31834316,0.87527674
7453040000000,-0.62345576,5.4391623,-0.6624241,3.397327,0.60032785,-0.09010262,0.2728157,-0.25457907,-0.27596956,0.8857777
7453060000000,-0.39871478,7.6341352,-1.3352251,0.7910705,0.004276057,-0.064599,0.2625854,-0.24642847,-0.26232892,0.89526844
7453080000000,-1.1211672,6.148563,-0.46933317,-0.9443977,-0.04260785,0.0720821,0.26109824,-0.24668369,-0.26661298,0.89436704
7453100000000,-1.697362,3.3755698,0.7558007,-1.4311045,-0.024740042,0.09941832,0.24524997,-0.24728447,-0.28157878,0.89410084
7453120000000,-1.5649018,1.7539048,1.180944,-1.4741706,0.059253927,0.08368854,0.23964313,-0.25186336,-0.2911111,0.89128584
7453140000000,-1.4705753,1.0640655,1.2853618,-1.5399913,-0.19914207,-0.086437434,0.22744182,-0.25285265,-0.3066047,0.88900477
7453160000000,-1.458143,0.13954687,0.73170185,-1.4802792,-0.26236662,-0.18127427,0.22397833,-0.25309625,-0.32142416,0.8845691
7453180000000,-1.250272,-0.18717098,0.15909481,-1.1400273,-0.23365596,-0.24785857,0.2154831,-0.2508029,-0.3360683,0.88188607
7453200000000,-1.0460069,0.13671398,-0.1497798,-0.8023715,-0.14446963,-0.19730948,0.21459587,-0.2504297,-0.34526882,0.87864846
7453220000000,-0.84907174,0.4479928,-0.07790947,-0.5213735,-0.14019357,-0.16707164,0.20832148,-0.24787474,-0.35306418,0.87778467
7453240000000,-0.5559418,0.27544594,0.21748018,-0.2501493,-0.10949759,-0.14263703,0.20828128,-0.24694772,-0.3569551,0.876481
7453260000000,-0.4177966,-0.023868084,0.45688915,0.023823744,-0.046120327,-0.111941054,0.2030403,-0.2437246,-0.35974577,0.87747145
7453280000000,-0.42480493,0.019815922,0.54084206,0.20952678,0.005955936,-0.06994407,0.20417474,-0.24300095,-0.35862908,0.8778658
7453300000000,-0.44572496,0.34488916,0.5864401,0.27977628,0.0290161,-0.014202617,0.20141602,-0.2410161,-0.35728148,0.879598
7453320000000,-0.43891382,0.6761069,0.5656781,0.2660318,0.039553523,0.04520403,0.20206809,-0.24082357,-0.35463107,0.8805734
7453340000000,-0.50284505,0.88770866,0.48211145,0.21166481,0.040317107,0.10186178,0.19713603,-0.23910043,-0.35349402,0.8826157
7453360000000,-0.60226154,0.91957283,0.42583084,0.14966199,0.02611449,0.1421789,0.19653225,-0.23952505,-0.351559,0.8834077
7453380000000,-0.67498326,0.79526424,0.45502043,0.110872045,0.005497787,0.14004086,0.19079569,-0.23816895,-0.35129815,0.885134
7453400000000,-0.7384329,0.6167021,0.52121115,0.115453534,-0.01038471,0.0983493,0.18992785,-0.23835973,-0.35009095,0.8857474
7453420000000,-0.71009445,0.6433463,0.4926319,0.1282817,-0.021991149,0.04230242,0.18440874,-0.23628742,-0.3501328,0.8874507
7453440000000,-0.6791456,0.7779083,0.4637866,0.10048734,-0.04184427,-0.006872234,0.18448989,-0.23581956,-0.3490581,0.88798153
7453460000000,-0.6148269,0.8602066,0.44709063,0.039095376,-0.058490347,-0.035430185,0.17987391,-0.23332086,-0.3497703,0.88930744
7453480000000,-0.5387397,0.84051085,0.48008823,-0.029168816,-0.06154467,-0.049785517,0.18006867,-0.23259017,-0.34997463,0.88937896
7453500000000,-0.47463226,0.7573285,0.4919796,-0.08659015,-0.06001751,-0.04917465,0.17612605,-0.23046026,-0.35174856,0.8900229
7453520000000,-0.44072866,0.64947796,0.46368122,-0.124769226,-0.05299256,-0.040775254,0.17607103,-0.22997676,-0.35294345,0.8896857
7453540000000,-0.39276028,0.5663724,0.45102453,-0.13423763,-0.03604105,-0.029474247,0.17507052,-0.22936203,-0.35450533,0.88942087
7453560000000,-0.3942485,0.5028262,0.387712,-0.118966006,-0.013744468,-0.01695151,0.1748921,-0.22928755,-0.35575077,0.8889777
7453580000000,-0.4211228,0.46180296,0.32604742,-0.08109236,0.0056505036,-0.0030543262,0.17460813,-0.22935942,-0.35670915,0.8886309
7453600000000,-0.42429638,0.4649639,0.29926443,-0.032070424,0.021838432,0.008093964,0.17450479,-0.2296042,-0.35715792,0.88840765
7453620000000,-0.48161435,0.47800827,0.32301044,0.012064588,0.030848695,0.015271631,0.17435616,-0.22986065,-0.35714346,0.8883764
7453640000000,-0.49619985,0.5180402,0.36133003,0.03772093,0.032986723,0.016340645,0.17439732,-0.2301579,-0.35676312,0.8884442
7453660000000,-0.52,0.57458735,0.37945604,0.04718934,0.029474247,0.01450805,0.17103378,-0.22909482,-0.35709095,0.88924086
7453680000000,-0.5303345,0.60392904,0.39342022,0.042913284,0.024892759,0.013133603,0.17111865,-0.22930081,-0.35658085,0.88937604
7453700000000,-0.53662014,0.6403718,0.39403486,0.029474247,0.01740966,0.012217305,0.16765939,-0.22813146,-0.35702994,0.890155
7453720000000,-0.545485,0.67566204,0.40144205,0.014049901,0.0096211275,0.008552114,0.16765279,-0.22824742,-0.3567835,0.89022547
7453740000000,-0.5273032,0.6719074,0.396101,-0.00290161,0.0016798794,0.0015271631,0.16701071,-0.22805348,-0.35685706,0.89036626
7453760000000,-0.5204632,0.64139366,0.39145088,-0.017562376,-0.004581489,-0.0053450707,0.16700336,-0.2280441,-0.35696113,0.8903284
7453780000000,-0.508266,0.57276535,0.38461828,-0.028252518,-0.008399397,-0.01282817,0.16677582,-0.22788863,-0.35725424,0.89029324
7453800000000,-0.4886074,0.5347986,0.38424158,-0.03436117,-0.011148291,-0.01817324,0.16681151,-0.22779034,-0.35758334,0.8901796
7453820000000,-0.45011234,0.52376366,0.34843636,-0.034208454,-0.0125227375,-0.020463986,0.16673747,-0.22761293,-0.35798928,0.8900757
7453840000000,-0.40899515,0.5075617,0.3404255,-0.03023783,-0.010537425,-0.020158553,0.16680932,-0.22747415,-0.3583389,0.88995695
7453860000000,-0.38996816,0.47215986,0.34509563,-0.024892759,-0.0025961774,-0.016340645,0.16688949,-0.22737543,-0.3586336,0.8898485
7453880000000,-0.40351558,0.50224257,0.32262897,-0.016493361,0.007330383,-0.009315695,0.16696975,-0.22738554,-0.35883835,0.88974833
7453900000000,-0.40170002,0.5298724,0.309731,-0.009315695,0.016035212,-0.0009162979,0.16696261,-0.22747521,-0.35894066,0.8896854
7453920000000,-0.41950226,0.56296873,0.33024216,-0.00076358154,0.020616703,0.0070249503,0.16698733,-0.22766384,-0.3589358,0.88963455
7453940000000,-0.4444275,0.5291872,0.33277035,0.009468411,0.023518313,0.012675454,0.16697568,-0.22788261,-0.3588283,0.889624
7453960000000,-0.46154118,0.51578283,0.359838,0.019394971,0.025503624,0.017715093,0.16696537,-0.22812867,-0.3586025,0.8896539
7453980000000,-0.46547794,0.5137234,0.3664899,0.024740042,0.027641652,0.022143865,0.16673765,-0.22831473,-0.3583355,0.88975656
7454000000000,-0.46697164,0.53381443,0.36890745,0.025198191,0.02855795,0.02321288,0.16669255,-0.2286066,-0.35798666,0.8898305
7454020000000,-0.4691565,0.5629082,0.3470006,0.02076942,0.025961773,0.021227567,0.16636068,-0.22878294,-0.3577352,0.8899484
7454040000000,-0.46162963,0.5454402,0.33757973,0.014660766,0.021380283,0.015271631,0.16632195,-0.22902857,-0.35748875,0.8899914
7454060000000,-0.4579823,0.5487156,0.33967543,0.009773844,0.016187929,0.006872234,0.16602236,-0.2290884,-0.35739103,0.8900712
7454080000000,-0.4506111,0.5595212,0.32458544,0.002443461,0.012217305,0.0010690142,0.16606122,-0.22920744,-0.35729304,0.89007264
7454100000000,-0.42796826,0.5636425,0.33049488,-0.008552114,0.00870483,-0.0009162979,0.16243315,-0.2278748,-0.35819206,0.89072275
7454120000000,-0.41079092,0.5109339,0.32710743,-0.017256944,0.0096211275,0.0018325958,0.16243042,-0.22796448,-0.35829824,0.8906576
7454140000000,-0.38711977,0.47890902,0.33450508,-0.014660766,0.0154243475,0.0050396384,0.16219614,-0.22801858,-0.35846993,0.8906174
7454160000000,-0.4237144,0.48958588,0.3444829,-0.00580322,0.021533,0.007330383,0.16218287,-0.2282301,-0.35850677,0.89055073
7454180000000,-0.4152515,0.529974,0.30851746,0.0047342055,0.022602014,0.009773844,0.1619661,-0.22836803,-0.3584986,0.8905581
7454200000000,-0.42081618,0.497602,0.33113623,0.014660766,0.025961773,0.011301007,0.16198693,-0.2285986,-0.35832864,0.8905637
7454220000000,-0.42929626,0.50696564,0.32466888,0.021533,0.028405234,0.012675454,0.16200523,-0.22883719,-0.35808074,0.8905987
7454240000000,-0.42768145,0.4886794,0.3169608,0.024587326,0.030085113,0.014202617,0.16204554,-0.2291034,-0.35777235,0.89064693
7454260000000,-0.41611886,0.52541685,0.31748962,0.022602014,0.031612277,0.013744468,0.16205351,-0.22937517,-0.35746807,0.89069766
7454280000000,-0.42635298,0.53386307,0.31394958,0.013897184,0.028099801,0.012370021,0.16209167,-0.22965838,-0.3572073,0.89072233
7454300000000,-0.40676546,0.54776144,0.32093,0.0041233404,0.023365596,0.009315695,0.16209081,-0.22990035,-0.35705915,0.8907196
7454320000000,-0.39265156,0.520906,0.30150747,-0.0065668016,0.022602014,0.004428773,0.16210823,-0.23011456,-0.3570164,0.8906781
7454340000000,-0.40277553,0.52133274,0.30546093,-0.01282817,0.023823744,0.0027488936,0.16213258,-0.23033576,-0.3570644,0.8905973
7454360000000,-0.40427208,0.5040326,0.2965355,-0.012064588,0.025045475,0.0062613687,0.16215517,-0.23058684,-0.35713455,0.89050007
7454380000000,-0.412781,0.48561287,0.27606964,0.00076358154,0.027183503,0.011301007,0.1620613,-0.2308214,-0.35715163,0.8904495
7454400000000,-0.4199953,0.44679308,0.29900837,0.01863139,0.031612277,0.014813482,0.16207327,-0.23110636,-0.3569612,0.8904498
7454420000000,-0.4013362,0.47922707,0.28221416,0.027794369,0.033750303,0.018325957,0.16187356,-0.23132111,-0.3566851,0.89054096
7454440000000,-0.3869753,0.49600697,0.30079937,0.028710667,0.032528576,0.02107485,0.16188712,-0.23163879,-0.35630754,0.8906072
7454460000000,-0.39503455,0.4999647,0.31737518,0.027030786,0.032070424,0.022143865,0.16172723,-0.231895,-0.3559716,0.89070386
7454480000000,-0.4206431,0.48525715,0.29776382,0.023823744,0.027641652,0.021838432,0.16170347,-0.23219924,-0.35563114,0.89076483
7454500000000,-0.422832,0.5085602,0.30444574,0.021685716,0.022143865,0.01985312,0.1616504,-0.23244114,-0.35533783,0.89082843
7454520000000,-0.39265585,0.4981537,0.30904675,0.021380283,0.01740966,0.019700404,0.16159526,-0.2326448,-0.35505667,0.89089745
7454540000000,-0.42446613,0.48560238,0.2639637,0.023823744,0.013591751,0.016187929,0.16093785,-0.23257881,-0.35493326,0.89108276
7454560000000,-0.41313386,0.5131173,0.26102543,0.027794369,0.004428773,0.012064588,0.16091906,-0.23268,-0.35465312,0.8911714
7454580000000,-0.54505086,0.38748693,0.38053608,0.116217114,-0.08384126,-0.0009162979,0.1598052,-0.23206599,-0.3545314,0.8915801
7454600000000,-0.70676494,-0.26694202,0.36240387,0.39385536,-0.16355917,-0.059864793,0.16001996,-0.23022926,-0.35273868,0.89272815
7454620000000,-0.43194366,-0.49660397,0.35417557,0.8199339,-0.06337727,-0.10415252,0.1591563,-0.22662942,-0.34834448,0.89552474
7454640000000,-0.33926153,-0.20312357,0.3423767,1.1501065,-0.015882496,-0.1386664,0.16261525,-0.2246417,-0.33923692,0.8988942
7454660000000,-1.0066197,-0.8560524,0.788023,1.5352571,-0.258396,-0.24083363,0.16028844,-0.21856517,-0.32954875,0.9043973
7454680000000,-1.0847101,-2.5832944,0.81121206,2.3677137,-0.18142697,-0.42913285,0.16637935,-0.21147667,-0.3134542,0.91068226
7454700000000,-0.7543607,-2.0250845,-0.053348064,3.0944905,0.20143281,-0.5002986,0.16942981,-0.20288807,-0.29007065,0.9197766
7454720000000,-0.86511946,0.33010817,-1.2488728,2.8948903,0.35063666,-0.5375614,0.18141995,-0.19913396,-0.26068205,0.92708004
7454740000000,-0.86635256,1.8380375,-2.031149,1.7278323,0.2910773,-0.72326446,0.18328659,-0.1940528,-0.24101007,0.93309367
7454760000000,-0.90245175,1.6605878,-2.2551765,0.5363397,0.22204952,-0.7244862,0.1928864,-0.19284296,-0.23282069,0.9334886
7454780000000,-0.6923728,0.4302807,-1.3948493,0.15302174,0.21410827,-0.74174315,0.19503027,-0.19153453,-0.23386624,0.9330511
7454800000000,-0.31152105,-0.74409103,-0.59487104,0.50488013,0.42928556,-0.7826711,0.19874965,-0.19193044,-0.23675868,0.93145406
7454820000000,-0.14625359,-0.5812268,-0.22428513,0.89934635,0.59712076,-0.79198676,0.20416074,-0.19253491,-0.23105498,0.93159133
7454840000000,-0.05692315,0.25733614,-0.113817215,0.928057,0.6382015,-0.7991645,0.21500827,-0.19463216,-0.22192243,0.9309352
7454860000000,0.00833106,0.857111,-0.2821293,0.6579019,0.6209445,-0.7690793,0.21623081,-0.19499362,-0.21629348,0.9319007
7454880000000,0.25087357,0.7788334,-0.6055722,0.29718593,0.6227771,-0.7298313,0.22539651,-0.19814348,-0.21204485,0.9300391
7454900000000,0.4292965,0.4256854,-0.33441496,0.116980694,0.656222,-0.70356405,0.22559518,-0.20044924,-0.21247055,0.92939943
7454920000000,0.41066003,0.43248653,0.4360876,0.21120666,0.75747293,-0.6898196,0.23396264,-0.20430285,-0.2108499,0.9268572
7454940000000,0.25443172,0.8731146,0.79837227,0.366061,0.8349001,-0.6824892,0.23651104,-0.2053167,-0.20724237,0.9268
7454960000000,0.18942237,1.0862966,0.43076134,0.36163223,0.8385653,-0.6779077,0.24606316,-0.2058193,-0.19880077,0.9260506
7454980000000,0.020350933,0.7935281,0.01713276,0.37965274,0.8054258,-0.6375906,0.2500259,-0.21049726,-0.19560832,0.92461634
7455000000000,-0.3230939,-0.15756321,0.22663116,0.5002986,0.7171558,-0.70448035,0.25837347,-0.21489017,-0.19148605,0.92217046
7455020000000,-0.53573394,-0.133461,0.30160618,0.84864455,0.8304713,-0.68844515,0.264059,-0.2179535,-0.18599938,0.92096335
7455040000000,-0.5102184,0.5496073,0.020114899,0.9969321,0.89476484,-0.68737614,0.27402657,-0.22220209,-0.17604768,0.91899025
7455060000000,-0.5595646,1.1972322,-0.28464222,0.8332202,0.83260936,-0.6750061,0.28182256,-0.22593391,-0.16689965,0.91742814
7455080000000,-0.7481413,1.297127,-0.1678381,0.7509061,0.8181013,-0.602924,0.29059234,-0.23023003,-0.1582122,0.9151607
7455100000000,-0.59107685,1.5033894,-0.19887543,0.50900346,0.7305948,-0.4999932,0.29755375,-0.23441656,-0.15043837,0.9131697
7455120000000,-0.67061234,0.95725346,0.0504961,0.3016147,0.6953174,-0.41279218,0.30365768,-0.23918806,-0.14353365,0.91103196
7455140000000,-0.5551169,1.5281589,0.0044145584,0.30787608,0.79717916,-0.23930646,0.3069735,-0.24292403,-0.13719559,0.909908
7455160000000,-0.6023586,0.8354902,0.17373562,0.18127427,0.7312057,-0.12660182,0.3100526,-0.24949828,-0.13143356,0.9079336
7455180000000,-0.8511152,1.5008857,0.55838585,-0.05207626,0.6629415,0.078343466,0.31081456,-0.2547755,-0.12579979,0.907005
7455200000000,-0.9452498,0.7777586,0.5218401,-0.49693888,0.2182316,-0.021227567,0.30965722,-0.26025173,-0.1263996,0.9057619
7455220000000,-0.6746986,0.20482159,0.31385994,-0.6064365,0.0013744468,-0.100029185,0.30885047,-0.26233754,-0.13253608,0.9045577
7455240000000,-1.1777823,-0.16522741,0.092601776,-0.34223726,0.07345655,-0.06994407,0.3084065,-0.26394558,-0.13726476,0.9035357
7455260000000,-0.94902086,0.7054715,-0.064909935,-0.3642284,-0.071013086,-0.14172074,0.30834818,-0.2648847,-0.13911545,0.90299755
7455280000000,-0.45992565,1.4504795,-0.5358834,-0.75716746,-0.10094548,-0.21471913,0.30833685,-0.26559708,-0.14436758,0.90196705
7455300000000,-0.9221926,0.77146244,-0.6531162,-1.0706941,-0.04184427,-0.17989981,0.30761608,-0.26739383,-0.15398957,0.90008897
7455320000000,-0.79789996,0.12916565,-0.27176523,-1.1560625,-0.05100725,-0.14294247,0.30582887,-0.27025247,-0.16475987,0.8979346
7455340000000,-0.35959792,0.29616833,0.014904022,-1.1577424,-0.22922719,-0.17837265,0.30356556,-0.27328986,-0.17602846,0.89564204
7455360000000,-0.77443004,-0.8550739,0.09122467,-0.9279043,-0.33337972,-0.1740966,0.30186877,-0.2729808,-0.1873212,0.8940177
7455380000000,0.2650659,-0.8055148,0.064898014,-0.58261275,-0.18753563,-0.16676621,0.300739,-0.27229726,-0.19518001,0.89292496
7455400000000,-0.075097084,-0.5442586,-0.24996948,-0.42943826,-0.11988231,-0.099571034,0.30062115,-0.27239996,-0.19995755,0.89187574
7455420000000,0.024691582,0.3129835,-0.41937065,-0.5170974,-0.0025961774,0.023365596,0.29966405,-0.27272108,-0.20395657,0.89119387
7455440000000,0.22401977,1.3205214,-0.72946453,-0.8570439,0.06093381,0.15577064,0.29708052,-0.2755674,-0.20948417,0.8899001
7455460000000,-0.47597408,0.33938456,-1.0446415,-1.0451905,0.08735373,0.2182316,0.29243547,-0.27952164,-0.21771696,0.8882277
7455480000000,0.0049443245,-1.1826401,-0.6740155,-0.89919364,0.24801129,0.03772093,0.2886279,-0.28573278,-0.22936068,0.88455886
7455500000000,0.5565474,-1.7079153,-0.35129595,-0.7191411,0.43142357,-0.2585487,0.28833506,-0.29046276,-0.23609008,0.88133746
7455520000000,0.53389335,-0.8183999,-0.6660199,-0.88178396,0.50808716,-0.4888449,0.29276574,-0.29835734,-0.25281334,0.8725576
7455540000000,0.19472122,-0.49742317,-1.1803441,-1.3865114,0.20693061,-0.66950834,0.29551724,-0.30383432,-0.26398087,0.8664112
7455560000000,-0.0899601,-1.6741261,-0.777791,-0.75976366,0.23411411,-0.5847508,0.29773536,-0.3072383,-0.27690518,0.8603964
7455580000000,0.12195444,-2.5777435,-0.0993104,0.54336464,0.41309762,-0.42714754,0.30269548,-0.30895254,-0.27843854,0.8575522
7455600000000,0.1188283,-0.8454728,0.17378569,1.5352571,0.6250679,-0.29535335,0.31073454,-0.3084791,-0.2675831,0.85830295
7455620000000,-0.23645139,1.872684,0.16083193,1.3397802,0.5337435,-0.20448714,0.31972185,-0.30817732,-0.25107834,0.8600957
7455640000000,-0.6446402,2.3404012,-0.35888004,0.33460143,0.2144137,-0.29458976,0.32520673,-0.30809078,-0.24318059,0.86033946
7455660000000,-0.98014426,0.6812854,0.3640442,-0.26511553,-0.09056077,-0.2883284,0.32718334,-0.30869508,-0.24424045,0.8590722
7455680000000,-0.55249834,0.11650896,1.4926825,0.28863382,0.043829583,-0.116217114,0.3281837,-0.30766958,-0.24687764,0.85830444
7455700000000,-0.5229349,0.8003473,0.7910137,0.61498857,0.09315695,-0.051923547,0.33054563,-0.30646524,-0.24116385,0.85945255
7455720000000,-0.67122626,1.0904222,0.211833,0.48930305,0.06169739,-0.13026701,0.3312813,-0.30651233,-0.22938725,0.8623714
7455740000000,-0.9912131,0.43940735,0.39843416,0.39171734,0.06291912,-0.20952678,0.3343397,-0.30519748,-0.22633164,0.8624648
7455760000000,-0.7555554,-0.13816023,0.23062134,0.25503623,-0.0096211275,-0.32803464,0.33758724,-0.30375853,-0.22437805,0.8622181
7455780000000,-0.5124879,-0.34724855,-0.024951458,0.22174409,-0.011301007,-0.3904956,0.34147045,-0.30199662,-0.22369522,0.8614851
7455800000000,-0.21183562,-0.24140072,-0.53836155,0.17531833,0.049785517,-0.41126502,0.3455891,-0.30048293,-0.2230932,0.8605276
7455820000000,0.14613223,0.48759985,-0.54276896,0.104610674,0.205098,-0.31810808,0.35330632,-0.30050156,-0.22174889,0.8577301
7455840000000,0.08125353,0.1762743,-0.3605566,0.0076358155,0.2182316,-0.2932153,0.3565151,-0.30143958,-0.22152545,0.85612947
7455860000000,0.13225198,-0.33867455,-0.43161106,0.04932737,0.27198774,-0.36774087,0.3597124,-0.30278465,-0.22156909,0.85430413
7455880000000,-0.30361962,-0.18834972,-0.5276203,0.15622878,0.2742785,-0.44700065,0.36421996,-0.30405176,-0.22116037,0.8520472
7455900000000,-0.6529634,1.2386985,-0.30957508,0.2854268,0.25137106,-0.30757064,0.36894166,-0.30466402,-0.21882825,0.85039765
7455920000000,-0.40702415,2.212329,0.83194065,0.2096795,0.017256944,-0.32452217,0.37182933,-0.3024361,-0.21033683,0.85207623
7455940000000,-0.5989411,1.1787758,1.7497792,-0.036193766,-0.24633141,-0.12950343,0.37421548,-0.30007142,-0.21062122,0.8517974
7455960000000,-0.69935536,-0.11488676,1.4406333,-0.00580322,-0.5514586,-0.05299256,0.3731513,-0.29712403,-0.21313287,0.85267216
7455980000000,-1.072156,-2.7296782,1.0935044,0.4286747,-0.768163,-0.30909783,0.3733736,-0.2901047,-0.2147655,0.85458016
7456000000000,-1.6906838,-1.1496058,0.65726423,0.5288566,-0.73639804,-0.22403483,0.37657097,-0.280166,-0.21353352,0.85679924
7456020000000,-4.680809,1.8431487,0.4986763,0.04062254,-0.8428413,0.5013676,0.37371477,-0.27281776,-0.21332866,0.86046416
7456040000000,-5.393566,2.8044395,1.1919961,-0.63270366,-1.2594514,0.6082691,0.36327055,-0.26596183,-0.21856193,0.86575365
7456060000000,-4.47289,1.1460962,2.4286766,-0.41920626,-1.2447907,0.2489276,0.3525455,-0.25750488,-0.22938983,0.86993295
7456080000000,-3.161752,-0.027311802,1.8061762,0.86391616,-0.8202393,0.4352415,0.34581828,-0.24759538,-0.23215672,0.8747626
7456100000000,-2.4490042,0.5671754,0.12748814,1.7895297,-0.37782016,0.4014912,0.34494612,-0.23868126,-0.21827084,0.88113636
7456120000000,-2.3016367,2.00456,-1.1559424,1.6293303,-0.48991394,0.8052731,0.33615825,-0.22922704,-0.20324923,0.89058536
7456140000000,-1.0716436,1.5247171,-1.4275589,1.3358096,-0.38896844,1.0364856,0.3297166,-0.22171235,-0.1901907,0.89775175
7456160000000,0.13200831,0.36931467,-2.648531,0.95294976,-0.23472497,1.0946705,0.30906707,-0.21516728,-0.18071426,0.9085829
7456180000000,0.73154116,-2.4203467,-2.5592523,0.6169739,-0.21242839,0.8228355,0.30139035,-0.21290822,-0.17444398,0.91290927
7456200000000,1.2542882,-3.4598389,-2.2229567,1.0326678,0.25030205,0.8205447,0.28298253,-0.21125495,-0.18111423,0.9178725
7456220000000,1.3664069,-0.63802576,-1.2623844,1.3972015,0.5847508,1.0256428,0.27810737,-0.21388133,-0.16550472,0.92169374
7456240000000,0.32532787,1.8198578,-1.4415932,1.1198688,0.66538495,1.0183123,0.26010936,-0.21591477,-0.15157399,0.928843
7456260000000,0.102267504,2.3756206,-1.3902073,0.61086524,0.75243324,1.0772609,0.25325063,-0.22183602,-0.13962187,0.9312136
7456280000000,0.67558146,1.8477906,-1.2504425,0.27152961,0.8576548,1.1301007,0.23720305,-0.22894016,-0.13346936,0.934616
7456300000000,0.9378495,0.9805777,-1.496645,0.22876903,0.97035944,1.1472049,0.22810793,-0.23852593,-0.12706558,0.93537515
7456320000000,0.82021904,0.73647714,-0.6720495,0.3465133,1.1148291,1.2559389,0.21732698,-0.2490097,-0.119282976,0.93623435
7456340000000,0.6684284,0.8281586,0.92798424,0.06261369,0.98654735,1.3655893,0.20690224,-0.25841135,-0.10991636,0.93719447
7456360000000,1.0284588,0.12627268,2.5169735,-0.19272798,0.6872234,1.4498887,0.19436912,-0.26798898,-0.10558129,0.93768615
7456380000000,1.4521561,-0.7588606,3.3825045,-0.1826487,0.40958515,1.4332426,0.1804547,-0.27467808,-0.10268785,0.93885213
7456400000000,1.9161916,-1.3814783,2.948409,-0.6104071,0.16615535,1.2321151,0.17064808,-0.27916956,-0.1003482,0.9396137
7456420000000,2.5471683,-0.34624004,0.5574198,-2.1155791,0.07284568,0.998612,0.15795988,-0.27867174,-0.10942463,0.94096607
7456440000000,1.433542,0.120162964,-0.6276746,-3.9745948,-0.59757894,0.7464773,0.14519025,-0.2834371,-0.13617723,0.938104
7456460000000,0.60626316,-1.6838403,1.3979578,-4.6569314,-1.1543826,0.6968445,0.124139965,-0.2813822,-0.17962117,0.93442476
7456480000000,0.9816592,-1.453701,4.021796,-4.0698895,-1.3322971,0.8434522,0.10636946,-0.27663276,-0.21992733,0.929404
7456500000000,1.3434157,0.42314625,3.8442965,-3.557221,-1.4564555,0.9596693,0.084172115,-0.2693817,-0.2523203,0.92557174
7456520000000,1.2005591,1.5025842,1.1920347,-4.3698244,-1.5987871,0.8538369,0.06759817,-0.25652024,-0.2782069,0.9231624
7456540000000,1.699044,3.006034,0.52785635,-5.8808,-2.1122193,0.91721416,0.04091052,-0.24530317,-0.3241401,0.9127354
7456560000000,0.9916818,1.8749905,0.9610734,-6.763347,-2.8776336,0.58016926,0.014063445,-0.22932446,-0.381107,0.8955277
7456580000000,0.42639732,-3.318356,1.3108478,-5.9773164,-3.3211217,-0.08597928,0.016096305,0.20137237,0.4397373,-0.8751122
7456600000000,1.1983709,-8.074567,0.9231982,-3.8844922,-3.1210632,-0.88040954,0.031270526,0.1716599,0.48195997,-0.85864407
7456620000000,0.7019067,-7.981984,0.25958824,-2.132225,-2.9098566,-1.6925548,0.03860386,0.13859062,0.5064075,-0.85020816
7456640000000,-0.9043765,-6.2233,-1.0865369,-1.0118983,-2.7692049,-2.2252293,0.032813113,0.10621699,0.5192431,-0.84736526
7456660000000,-1.5596205,-5.349305,-2.511901,-0.105832405,-2.5294402,-2.5618162,0.026480809,0.070964,0.52448976,-0.84804094
7456680000000,-1.5912796,-4.8647165,-3.5601933,0.5543602,-2.1148155,-2.8990138,0.010290372,0.03981118,0.5225217,-0.85163397
7456700000000,-1.605847,-2.4338808,-4.022707,0.9621128,-1.6522378,-3.029128,0.006124633,-0.008538717,-0.5161434,0.8564377
7456720000000,-1.1969097,-0.10825062,-4.215385,1.1325442,-1.3406965,-3.0300443,0.029588941,0.016606927,-0.5069069,0.8613328
7456740000000,-0.6493007,0.64682484,-3.776155,1.3747523,-1.104139,-3.0356948,0.04929261,0.042564135,-0.4960879,0.8658264
7456760000000,-0.7479588,0.22690964,-3.04513,2.0001256,-0.75441855,-3.0431778,0.07494196,0.06389091,-0.4811323,0.87109894
7456780000000,-1.0852938,0.4054165,-2.5104024,2.5584564,-0.31016684,-2.9126055,0.09705482,0.08445262,-0.45862284,0.8792686
7456800000000,-1.1588058,1.5928144,-2.1697264,2.7324002,0.15409076,-2.653446,0.124543145,0.0974297,-0.43244192,0.88768834
7456820000000,-1.3300086,1.982831,-1.6828027,2.5906794,0.33582318,-2.5054638,0.1457177,0.10854237,-0.40551734,0.8958463
7456840000000,-1.9028745,1.3697371,-1.1901851,2.5819747,0.48258355,-2.2768476,0.17147784,0.11617568,-0.38004977,0.901477
7456860000000,-1.9519234,1.6365256,-0.48259783,2.7354546,0.7287622,-1.9617938,0.18942007,0.122903965,-0.35241568,0.9081949
7456880000000,-1.9780269,2.4548726,-0.52088165,2.600606,0.86422163,-1.715615,0.21123613,0.12478899,-0.32422596,0.9136107
7456900000000,-2.1943276,3.540715,-1.0340753,1.8868101,0.96684694,-1.465313,0.22563662,0.12585036,-0.2986977,0.91871077
7456920000000,-3.2106287,3.413567,-0.43117905,1.0574077,0.73792523,-1.2771665,0.24479862,0.123013176,-0.28304288,0.9191454
7456940000000,-3.3045433,2.9925876,0.2446146,0.80878556,0.7154759,-0.9421069,0.2559736,0.12175685,-0.27260426,0.9194235
7456960000000,-2.8599293,2.603421,0.45480156,0.77671516,0.700357,-0.6403395,0.2638388,0.11912126,-0.26255336,0.92047
7456980000000,-2.6757872,2.2952087,0.44905663,0.5716171,0.5873469,-0.41279218,0.2692938,0.116044484,-0.2535518,0.92180586
7457000000000,-2.3924003,1.7822361,0.4928894,0.2939789,0.50411654,-0.22220223,0.27285272,0.112428784,-0.24729674,0.9229061
7457020000000,-1.7956151,1.1146951,0.44037724,0.09728029,0.44012842,-0.07727446,0.27486327,0.10647995,-0.24243101,0.92430484
7457040000000,-1.0882812,-0.018215418,0.17473984,0.049632803,0.41126502,-0.018325957,0.27430475,0.0899411,-0.23595667,0.9278965
7457060000000,-0.39004302,-0.57057023,0.3409834,0.06963864,0.34574974,0.059253927,0.27515772,0.08627398,-0.23410676,0.9284606
7457080000000,-0.5590639,-0.1398654,1.2016144,-0.2658791,0.24572055,0.12705997,0.2743137,0.082792476,-0.23366532,0.9291383
7457100000000,-0.8971833,-1.0173686,1.3410301,-0.43127087,0.24327709,0.0421497,0.27470765,0.079369,-0.23732786,0.92839205
7457120000000,-0.16635513,-0.75967073,0.5128517,-0.28389964,0.123547494,0.032223143,0.27508408,0.075992435,-0.24055503,0.9277322
7457140000000,0.29580784,-0.2750187,0.048254013,-0.129198,-0.09941832,0.01450805,0.2751851,0.07586241,-0.24200335,0.9273363
7457160000000,-0.3972814,0.36853027,-0.07044506,-0.21074851,-0.13133603,0.10048734,0.2744362,0.07660921,-0.24382001,0.9270208
7457180000000,0.40811706,0.05406499,0.35703564,-0.07849618,-0.18173242,0.03970624,0.2733397,0.07756987,-0.24580838,0.92673975
7457200000000,0.59200335,-0.6944475,0.32862568,0.29229903,-0.13713925,0.034513887,0.27271727,0.07936065,-0.24576189,0.92678386
7457220000000,0.6569464,-0.1140461,0.1717081,0.5326745,-0.06918049,0.12186762,0.2713579,0.08128107,-0.24149111,0.92813814
7457240000000,0.62593555,0.9807625,-0.18625736,0.4888449,-0.035888333,0.13958271,0.26988012,0.08402559,-0.23530787,0.9299112
7457260000000,0.40693045,1.8041067,-0.43723488,0.1638646,-0.101098195,0.21426098,0.26792842,0.085241355,-0.23205496,0.93118143
7457280000000,0.24945855,1.1965685,-0.56509495,-0.054519724,-0.14584407,0.2041817,0.26546624,0.08611293,-0.23285034,0.9316077
7457300000000,0.06334305,0.86674714,-0.6385088,0.1826487,-0.016340645,0.26542094,0.263308,0.08653878,-0.2334011,0.9320429
7457320000000,0.25698376,0.9976928,-0.733552,0.40775254,0.109650314,0.3791946,0.26010722,0.085974604,-0.2301487,0.933801
7457340000000,0.19630647,0.63604236,-0.79609966,0.36392298,0.06658431,0.41386122,0.25607434,0.08517898,-0.22624,0.9359412
7457360000000,-0.08300114,-0.87854314,-0.5571327,0.32620203,0.05589417,0.3837761,0.2520867,0.08458508,-0.22359869,0.9377107
7457380000000,-0.5138798,-1.9070292,-0.6716862,0.29245174,0.14584407,0.38835758,0.24651976,0.07841106,-0.22812538,0.93863654
7457400000000,-0.73742306,-1.3735566,-0.6259012,0.21456642,0.26710084,0.3651447,0.23905359,0.06502855,-0.24169263,0.9381948
7457420000000,-0.65825105,-0.5166669,-0.8174782,0.10903945,0.33964106,0.34254268,0.23647879,0.06155004,-0.23962753,0.9396106
7457440000000,-0.62919235,0.2635286,-1.2775755,-0.10064005,0.36392298,0.32146785,0.23418748,0.057422213,-0.23894003,0.94062036
7457460000000,-0.48299444,0.7875676,-1.6715274,-0.25259277,0.42653665,0.31948254,0.23239386,0.052524973,-0.24011584,0.9410519
7457480000000,-0.44656014,0.9000621,-1.3348169,-0.37888917,0.38805214,0.42531493,0.2302056,0.046725817,-0.24252293,0.9412783
7457500000000,2.2427444,0.5674453,3.49051,-0.04138612,-0.30573806,0.72036284,0.22500068,0.044823937,-0.24082324,0.943064
7457520000000,-2.83725,-3.0336432,3.9466057,-0.44837508,-0.39828414,0.10949759,0.2208399,0.04831401,-0.24579372,0.94259274
7457540000000,0.13424182,-1.2229314,1.5587139,-0.41080686,-0.32345316,0.018936822,0.21930392,0.050178207,-0.25133234,0.9413926
7457560000000,-0.03587556,0.28049088,-1.0515165,-0.07513642,-0.2359467,0.16584991,0.2188142,0.052093767,-0.2545202,0.94054574
7457580000000,0.69950986,0.92644954,-0.32037544,0.022449298,-0.27091873,0.14340061,0.21610333,0.054386843,-0.25413507,0.9411465
7457600000000,-0.3439324,0.025087833,0.416296,-0.11285736,-0.18310685,0.058948494,0.21428315,0.05657433,-0.2550619,0.94118303
7457620000000,-0.3530823,0.42471504,0.121582985,-0.15409076,-0.107665,0.14828753,0.2140073,0.05722847,-0.2569409,0.9406951
7457640000000,0.13417196,0.45175648,0.279521,-0.19547687,-0.086132,0.16462818,0.21173608,0.057160906,-0.25876486,0.9407131
7457660000000,-0.026936054,0.33044243,0.27259254,-0.23564127,-0.09132435,0.12186762,0.21048453,0.057138454,-0.26114747,0.94033694
7457680000000,0.3393407,0.42346048,0.12998772,-0.17821993,-0.08109236,0.12370021,0.20923148,0.057323653,-0.26342088,0.939971
7457700000000,0.23815775,0.37377882,0.319232,-0.13316862,-0.05222898,0.11575896,0.20803714,0.057382543,-0.26498514,0.9397929
7457720000000,0.29303956,0.3188901,0.20919037,-0.11438452,-0.020158553,0.08124508,0.20717281,0.057188645,-0.2662129,0.93964875
7457740000000,0.40950513,0.56531143,0.1842575,-0.09819659,-0.0050396384,0.11530081,0.20647041,0.057103295,-0.26707843,0.9395628
7457760000000,0.28167486,0.58742476,0.19880295,-0.103847094,0.034513887,0.06795876,0.20555219,0.056644116,-0.2678722,0.93956596
7457780000000,0.15715075,0.60253716,0.1535759,-0.14340061,0.04795292,0.038026363,0.20538756,0.055830788,-0.2688595,0.93936867
7457800000000,-0.0072865486,0.59519863,0.21106625,-0.2041817,0.01160644,0.0016798794,0.20543016,0.055104595,-0.27041298,0.9389562
7457820000000,-0.078345776,0.35508585,0.19285679,-0.20540343,-0.01786781,-0.008399397,0.20564006,0.054793585,-0.27248764,0.9383285
7457840000000,0.010905981,0.14773083,0.25798035,-0.1479821,-0.025961773,0.0027488936,0.20570576,0.054699335,-0.27421075,0.9378175
7457860000000,-0.00499177,0.17201805,0.18140507,-0.10186178,-0.023365596,0.004886922,0.20568074,0.054674022,-0.27537426,0.9374835
7457880000000,0.034816504,0.28035736,0.16262054,-0.0580322,-0.028405234,0.023823744,0.20553713,0.054731507,-0.27613392,0.9372882
7457900000000,0.040611982,0.2975626,0.25282001,-0.035888333,-0.022449298,0.029168816,0.20519413,0.05484699,-0.27656448,0.93722963
7457920000000,0.06808066,0.38547897,0.15407753,-0.032223143,-0.01038471,0.02733622,0.20491843,0.054860413,-0.27687252,0.9371982
7457940000000,0.063384295,0.47482872,0.11471081,-0.043982297,-0.014660766,0.02855795,0.20466226,0.05482254,-0.2772187,0.93715405
7457960000000,0.03443885,0.3924594,0.20985031,-0.06261369,-0.01160644,0.017562376,0.20441937,0.05481094,-0.27774286,0.9370526
7457980000000,0.02137518,0.36675358,0.18991661,-0.056199603,-0.0070249503,0.010537425,0.20435667,0.05474955,-0.27836075,0.9368864
7458000000000,0.07044506,0.43665028,0.14336395,-0.048563786,0.0033597588,0.012370021,0.20426261,0.05463919,-0.27878654,0.9367868
7458020000000,0.022452354,0.36735678,0.2166872,-0.062308256,0.0035124752,0.007330383,0.20426582,0.05449602,-0.27927205,0.9366498
7458040000000,0.026720762,0.44237518,0.14613056,-0.0627664,0.009315695,0.0053450707,0.2042746,0.05429057,-0.27986217,0.9364836
7458060000000,0.051560402,0.3893242,0.095915794,-0.03436117,0.022296581,0.027947085,0.20421706,0.054039095,-0.28030297,0.93637896
7458080000000,0.108793736,0.2494483,0.15694141,-0.0071776668,0.06001751,0.0355829,0.20400666,0.053577997,-0.2803841,0.93642694
7458100000000,0.13107824,0.27000618,0.16718388,0.025809057,0.09850202,0.04627304,0.20387204,0.052731372,-0.28013933,0.93657756
7458120000000,0.114271164,0.35677338,0.13294601,0.05207626,0.12644911,0.0580322,0.2036798,0.051552903,-0.2794836,0.9368809
7458140000000,0.011059761,0.4016118,0.26836777,0.03436117,0.10476339,0.035430185,0.20354906,0.050382186,-0.27874616,0.9371927
7458160000000,0.007846355,0.35604525,0.23882103,0.0027488936,0.089491755,0.012064588,0.203571,0.04953815,-0.2783768,0.93734264
7458180000000,0.017068386,0.40181494,0.08438015,0.01282817,0.101556346,0.01695151,0.20379636,0.048650287,-0.27822968,0.93738383
7458200000000,0.086743355,0.28719473,0.15644646,0.06246097,0.107665,0.040927973,0.2038252,0.047637153,-0.27766255,0.9375978
7458220000000,0.002800703,0.23639107,0.30336952,0.06704246,0.10445796,0.040011674,0.20363449,0.046666205,-0.2767364,0.9379618
7458240000000,-0.024643898,0.4328723,0.15934086,0.04841107,0.082924955,0.032070424,0.20358467,0.045771487,-0.2759731,0.9382415
7458260000000,-0.15727401,0.2746215,0.25756073,0.049785517,0.02367103,0.039095376,0.20338632,0.045381397,-0.27545404,0.93845606
7458280000000,0.09668374,0.37550545,0.27305508,0.05131268,0.034208454,0.048563786,0.20297307,0.045171443,-0.274937,0.9387071
7458300000000,-0.06477809,0.31125784,0.19500351,0.046578474,0.014660766,0.04337143,0.20265068,0.04490335,-0.27437553,0.938954
7458320000000,-0.00022387505,0.43877554,0.19798565,0.008246681,-0.005955936,0.03176499,0.20227899,0.044838924,-0.27404404,0.9391339
7458340000000,-0.006187439,0.6193638,0.13694477,-0.023365596,-0.03436117,0.032528576,0.20195024,0.044934105,-0.2742533,0.93913907
7458360000000,0.055047512,0.0015406609,0.20967293,0.033292156,-0.0030543262,0.046578474,0.20157242,0.045130394,-0.27443564,0.93915755
7458380000000,0.098510504,0.19847345,0.20372772,0.0786489,0.024740042,0.055283304,0.20104216,0.04492577,-0.27370784,0.9394934
7458400000000,-0.0021152496,0.5433254,0.11392403,0.039858956,0.014660766,0.04062254,0.20064808,0.04475716,-0.27299488,0.939793
7458420000000,-0.010059118,0.6595082,0.067988396,0.0021380284,-0.00870483,0.035888333,0.20030282,0.044648316,-0.2728794,0.9399054
7458440000000,0.105364084,0.0071077347,0.0977087,0.10216721,0.014813482,0.047800206,0.19999163,0.044701733,-0.27271986,0.94001544
7458460000000,0.17285895,-0.24231434,0.26121235,0.24602598,0.08307768,0.07391469,0.19939718,0.044415638,-0.27082026,0.9407043
7458480000000,-0.09852898,0.48300314,0.3108654,0.21868975,0.05681047,0.04642576,0.1988924,0.043926857,-0.2680218,0.941635
7458500000000,-0.11912274,1.0779076,0.09507656,0.027183503,0.0015271631,0.019089539,0.1987043,0.043913655,-0.26655698,0.94209105
7458520000000,-0.07455516,1.2814708,-0.077376366,-0.1553125,-0.077579886,-0.0022907446,0.19856375,0.04415582,-0.267464,0.9418524
7458540000000,0.10162592,0.009932041,0.2567129,-0.14126259,-0.059253927,0.005192355,0.1984659,0.044662647,-0.26944047,0.9412855
7458560000000,0.10610676,-0.046236515,0.2946949,-0.08200866,-0.025503624,-0.0027488936,0.19835937,0.04476768,-0.27041733,0.9410229
7458580000000,-0.04172182,0.53711414,0.10730076,-0.078343466,-0.051465396,-0.025198191,0.19847581,0.04495695,-0.27116534,0.940774
7458600000000,0.08220339,0.061536312,0.16847897,-0.020922136,-0.028252518,-0.0012217305,0.19851723,0.045406267,-0.27180883,0.94055796
7458620000000,0.09448314,0.11475992,0.15381813,0.053450707,0.011301007,0.01160644,0.19846696,0.04548311,-0.27161866,0.9406197
7458640000000,0.032869816,0.3028388,0.13505077,0.0795652,0.034513887,0.03359759,0.19828847,0.045335427,-0.270747,0.9409158
7458660000000,-0.03410554,0.6801467,0.17439365,0.01786781,0.013591751,0.031154128,0.19801475,0.04510107,-0.2700888,0.94117385
7458680000000,-0.017137289,0.63200045,0.2168417,-0.076052725,-0.0050396384,0.015577064,0.19781026,0.04504842,-0.27031392,0.94115466
7458700000000,0.012260199,0.5294795,0.100507736,-0.111941054,-0.02076942,0.016493361,0.19774488,0.044901278,-0.27141568,0.94085836
7458720000000,0.087794304,0.12459612,0.20917416,-0.065515295,-0.0056505036,0.015882496,0.19754265,0.044855542,-0.27238855,0.9406218
7458740000000,0.068187475,0.27326012,0.2177372,-0.05177083,0.020005837,-0.016035212,0.19759192,0.044669762,-0.27279148,0.9405036
7458760000000,0.043370962,0.41180563,0.081585884,-0.051923547,0.03970624,-0.024281893,0.19797072,0.04439409,-0.27320394,0.9403172
7458780000000,0.12403941,0.2622242,0.2260027,-0.05665775,0.06078109,-0.062155537,0.1984122,0.04392501,-0.2734885,0.94016343
7458800000000,-0.0073451996,0.24713707,0.37792206,-0.099265605,0.07696902,-0.10797043,0.19960667,0.04332774,-0.27408066,0.9397658
7458820000000,0.018762589,0.12250805,0.10207081,-0.030543262,0.071776666,-0.06704246,0.20078716,0.042745344,-0.27470756,0.9393578
7458840000000,0.06889081,0.2961707,0.031083107,0.06291912,0.076816306,-0.008246681,0.20127542,0.0422151,-0.27423117,0.9394165
7458860000000,-0.025202513,0.81935596,0.042589188,0.03756821,0.03726278,0.03894266,0.20123114,0.041727576,-0.27334386,0.9397064
7458880000000,-0.12821794,0.8168154,0.08803272,-0.07009678,-0.007330383,0.040317107,0.20084727,0.0414837,-0.27344993,0.9397685
7458900000000,-0.07748437,0.79914665,0.12665462,-0.16630806,-0.057268616,0.045814894,0.20038174,0.041415047,-0.27465424,0.9395195
7458920000000,-0.11420739,0.48013258,0.26211548,-0.24495697,-0.09972375,0.0106901415,0.2000202,0.04175013,-0.2768626,0.9389335
7458940000000,0.107275724,0.0096235275,0.31956577,-0.21731532,-0.09056077,-0.012980887,0.19984838,0.042256854,-0.27946305,0.93817663
7458960000000,0.10205221,-0.09960556,0.21333885,-0.113926366,-0.022602014,-0.007788532,0.19989365,0.04259691,-0.28113037,0.9376534
7458980000000,0.114301205,0.22274446,0.16256332,-0.028252518,0.008093964,0.009468411,0.19991352,0.04243685,-0.28163055,0.9375062
7459000000000,-0.029699802,0.17520237,0.28192997,-0.0067195175,0.0070249503,0.0021380284,0.19989695,0.04227204,-0.2816727,0.93750465
7459020000000,0.031757355,0.21124029,0.24631596,0.008093964,0.008093964,-0.008552114,0.19997439,0.042239454,-0.281642,0.9374988
7459040000000,0.038513422,0.34457302,0.1326313,0.03023783,0.0032070426,0.010537425,0.20001389,0.042252827,-0.28138003,0.93756837
7459060000000,0.02252078,0.29104328,0.17584419,0.028863383,0.0056505036,0.011759156,0.19986929,0.042279165,-0.28104517,0.9376985
7459080000000,0.058506012,0.2515602,0.15554237,0.03970624,0.022143865,0.0076358155,0.19983304,0.042211514,-0.28072807,0.9378043
7459100000000,0.016779423,0.29853153,0.21070099,0.056505036,0.03359759,0.01038471,0.19982009,0.042015105,-0.2801732,0.9379817
7459120000000,0.019227266,0.30985594,0.21684265,0.04886922,0.035277467,0.0030543262,0.19983184,0.041798964,-0.27953306,0.9381798
7459140000000,0.02993989,0.36339855,0.14220047,0.040011674,0.039858956,-0.00076358154,0.19992673,0.041560587,-0.2790326,0.93831927
7459160000000,0.028719902,0.46431112,0.13882446,0.02611449,0.03894266,0.002443461,0.20003153,0.041250814,-0.2785774,0.93844575
7459180000000,0.012345552,0.5189614,0.16039658,-0.02443461,0.027183503,-0.010231993,0.20014037,0.04098208,-0.2784194,0.9384812
7459200000000,0.012251139,0.37979937,0.1709652,-0.05222898,0.020616703,-0.027488936,0.20044605,0.040766522,-0.2788294,0.93830365
7459220000000,0.046407223,0.18673277,0.1484394,-0.01863139,0.0290161,-0.025961773,0.20083024,0.040553495,-0.2791715,0.93812895
7459240000000,0.0299294,0.30236578,0.21156788,0.008093964,0.025503624,-0.018936822,0.2011032,0.040367275,-0.2790319,0.93812
7459260000000,0.040678024,0.34585905,0.19206905,0.0070249503,0.032528576,-0.020922136,0.20137869,0.040217124,-0.27884904,0.93812174
7459280000000,0.049571514,0.36601782,0.1407566,0.01985312,0.0421497,-0.009010263,0.20163284,0.039956313,-0.27862343,0.9381454
7459300000000,0.0064663887,0.3911476,0.14389038,0.0071776668,0.043982297,-0.010537425,0.20183764,0.039598517,-0.27830386,0.93821144
7459320000000,-0.0028728247,0.35916758,0.21161842,-0.01817324,0.022602014,-0.019700404,0.20208393,0.039329413,-0.2782762,0.9381779
7459340000000,0.04312873,0.19878483,0.19373226,-0.00015271631,0.027641652,-0.021685716,0.2023768,0.03918363,-0.2783814,0.9380896
7459360000000,0.008154869,0.34938955,0.15071201,0.02565634,0.023060163,-0.011148291,0.20263365,0.039009627,-0.27813178,0.9381154
7459380000000,0.0030266047,0.35266304,0.21050262,0.018936822,0.0125227375,-0.009315695,0.20274593,0.038960602,-0.2777789,0.9381978
7459400000000,-0.02323401,0.40887928,0.14669514,-0.0035124752,0.0010690142,-0.017256944,0.20291571,0.038971215,-0.27765575,0.93819714
7459420000000,-0.00847888,0.50262403,0.17156124,-0.0364992,-0.016340645,-0.024740042,0.2030636,0.039077006,-0.2778018,0.93811744
7459440000000,-0.080262184,0.3118205,0.21341324,-0.053450707,-0.043676864,-0.031612277,0.20334043,0.03937353,-0.27831936,0.9378916
7459460000000,0.028583765,0.23793507,0.19728565,-0.04734206,-0.04642576,-0.028710667,0.20348594,0.039821167,-0.2788891,0.93767196
7459480000000,0.032889366,0.4780712,0.0681448,-0.06566802,-0.030390546,-0.022907447,0.20367494,0.040250264,-0.27939382,0.9374624
7459500000000,0.078379154,0.8089614,0.07346058,-0.113162786,-0.030848695,-0.03268129,0.20380972,0.04033339,-0.28023878,0.9371772
7459520000000,0.14553809,-0.38110256,0.28809357,-0.023518313,-0.00045814895,-0.04627304,0.20427413,0.04054934,-0.28121474,0.9367744
7459540000000,0.08402324,0.018475533,0.26997948,0.08277224,0.022449298,-0.048563786,0.20472077,0.04054918,-0.28065923,0.9368435
7459560000000,-0.0057218075,0.38039064,0.07841873,0.112399206,0.0346666,-0.042455133,0.20523444,0.04067421,-0.27958524,0.93704677
7459580000000,0.16636586,0.09695196,0.15939903,0.15454891,0.07742717,-0.017104227,0.20561437,0.04055864,-0.27816537,0.9373909
7459600000000,0.13306999,0.619246,0.19116974,0.10170906,0.09162979,-0.030390546,0.20598464,0.040109266,-0.27644917,0.93783665
7459620000000,-0.16267264,0.7220969,0.13693333,-0.010231993,0.049938235,-0.049938235,0.2066158,0.03959432,-0.2758407,0.93789876
7459640000000,-0.10934961,0.40560484,0.18314838,-0.05955936,0.0070249503,-0.07727446,0.20729662,0.03946042,-0.27628058,0.9376247
7459660000000,0.16434717,-0.1910429,0.11252308,0.041996986,0.060322944,-0.05100725,0.2080677,0.039458245,-0.27658248,0.937365
7459680000000,0.17398906,-0.26208115,0.06151104,0.23609942,0.15470162,0.017715093,0.2084986,0.038749166,-0.27501023,0.93776125
7459700000000,0.003975868,0.049206257,0.24358463,0.31490102,0.1797471,0.03313944,0.20852347,0.03755197,-0.27162772,0.93878984
7459720000000,-0.17189097,0.7297902,0.20469093,0.2012801,0.1142318,0.03145956,0.20854041,0.03658734,-0.2685495,0.9397092
7459740000000,-0.20101607,1.0879896,0.08321285,0.02321288,0.01740966,0.004581489,0.20850392,0.036233734,-0.2672793,0.94009316
7459760000000,-0.055761576,0.7503371,0.13614082,-0.11071932,-0.023365596,-0.025809057,0.20860316,0.036351062,-0.2679124,0.9398864
7459780000000,-0.005132556,0.18347788,0.23707008,-0.118966006,-0.0355829,-0.03634648,0.20893161,0.03647033,-0.26930666,0.93941015
7459800000000,0.0067079067,-0.026820183,0.2895031,-0.051465396,-0.02977968,-0.02733622,0.20918922,0.03669191,-0.27024707,0.93907416
7459820000000,0.046420217,0.048316002,0.2056284,0.031154128,-0.013133603,-0.012980887,0.20932014,0.03697818,-0.27030587,0.9390168
7459840000000,0.118254304,0.26806498,0.05624485,0.07696902,0.027488936,0.0056505036,0.20932432,0.03710653,-0.2696371,0.939203
7459860000000,0.09701574,0.5268693,0.007631302,0.044593163,0.065515295,0.0009162979,0.20937788,0.036764197,-0.26877424,0.9394518
7459880000000,-0.02302134,0.87136364,0.108457565,-0.071776666,0.040317107,-0.030695979,0.20968626,0.03617592,-0.26860824,0.93945336
7459900000000,-0.10640228,0.4691515,0.20775223,-0.12980886,-0.011759156,-0.056963183,0.21024923,0.035994772,-0.26976636,0.9390026
7459920000000,0.07421148,-0.28223515,0.22895432,-0.0036651916,0.00015271631,-0.03176499,0.2107305,0.03614003,-0.27065828,0.9386324
7459940000000,0.055974603,-0.04586649,0.29382133,0.09407325,0.022449298,-0.004886922,0.21089306,0.036159765,-0.26989543,0.93881476
7459960000000,-0.050793886,0.51192236,0.19375896,0.05665775,0.00870483,-0.011301007,0.21092983,0.036211908,-0.26889253,0.9390922
7459980000000,-0.01151371,0.62098694,0.035696983,0.012064588,-0.00992656,-0.0053450707,0.21104439,0.036343254,-0.26861486,0.9391409
7460000000000,0.045601487,0.46922445,0.120741844,-0.025045475,-0.011453724,-0.005192355,0.2110475,0.036483377,-0.26869673,0.93911135
7460020000000,0.0398798,0.48976088,0.20099926,-0.07727446,-0.0071776668,-0.035430185,0.21121034,0.036563206,-0.2691139,0.93895215
7460040000000,0.020448327,0.21717596,0.12045956,-0.059101213,0.01985312,-0.042913284,0.21172288,0.03653855,-0.2699556,0.9385959
7460060000000,0.21405661,-0.08121014,0.122758865,0.057268616,0.08811731,0.0027488936,0.21211235,0.036098655,-0.26988792,0.9385446
7460080000000,0.14467597,0.12618017,0.20504951,0.09896017,0.14401148,0.01160644,0.21223922,0.035099544,-0.26861468,0.93891895
7460100000000,0.011850119,0.5642538,0.061605453,0.04153884,0.15393804,-0.003970624,0.21258241,0.033784494,-0.26746204,0.9392185
7460120000000,-0.11470902,0.68549776,0.07329464,-0.024129177,0.086437434,-0.014966198,0.21306568,0.03260216,-0.26714385,0.93924135
7460140000000,-0.15122104,0.19881582,0.36679268,-0.049021937,0.025045475,-0.04046982,0.21346243,0.032149136,-0.26752353,0.93905884
7460160000000,-0.02082181,0.08099365,0.2826643,-0.029626964,0.013744468,-0.065515295,0.21399327,0.032171313,-0.267856,0.9388424
7460180000000,0.055894732,0.3950696,-0.0012741089,-0.01695151,0.027794369,-0.061086524,0.21475083,0.03213785,-0.26800492,0.9386281
7460200000000,0.13521302,0.23445511,0.040463448,0.033750303,0.070554934,-0.021227567,0.215271,0.031864047,-0.26785898,0.93855983
7460220000000,0.057493925,0.032135963,0.25538826,0.08170322,0.10903945,-0.009315695,0.21558456,0.031103754,-0.26700607,0.9387564
7460240000000,-0.070440054,0.347363,0.23264885,0.053145275,0.090713486,-0.030390546,0.21602024,0.030324668,-0.26593682,0.9389852
7460260000000,-0.061986327,0.46715355,0.09269428,0.022449298,0.03573562,-0.03268129,0.2165522,0.029894622,-0.26551706,0.93899536
7460280000000,0.0016657114,0.09806061,0.22333527,0.053603426,0.03940081,-0.007788532,0.21679966,0.029888473,-0.265166,0.9390377
7460300000000,0.087819934,0.57061386,0.124770164,0.024740042,0.0720821,0.0062613687,0.2169575,0.02937948,-0.2644142,0.93922913
7460320000000,-0.1642096,0.8971348,0.08203888,-0.092240654,0.015271631,-0.01450805,0.21708146,0.028806893,-0.2644662,0.93920374
7460340000000,-0.0763756,0.549314,0.2243185,-0.19730948,-0.032528576,-0.06429356,0.21746163,0.028706415,-0.2660014,0.9386851
7460360000000,-0.0050878525,-0.24024343,0.2784853,-0.1085813,-0.043676864,-0.06352998,0.21811476,0.029023556,-0.26786238,0.93799436
7460380000000,0.0820626,-0.66160965,0.3965435,0.07819075,-0.009010263,-0.07147124,0.21867521,0.029362142,-0.2680326,0.9378047
7460400000000,0.013652325,-0.44314146,0.4758377,0.19822577,-0.0009162979,-0.10170906,0.21937244,0.030005367,-0.2664207,0.9380808
7460420000000,0.116377234,0.3263979,0.1296339,0.20173825,0.026267206,-0.122783914,0.22043976,0.030728247,-0.26418132,0.9384403
7460440000000,0.10922742,0.9600642,-0.1968441,0.11881329,0.035277467,-0.122020334,0.2217127,0.031099377,-0.2624247,0.93862116
7460460000000,-0.10153556,0.904336,0.072133064,-0.05299256,0.03145956,-0.14752395,0.22313073,0.03125335,-0.26190192,0.93842596
7460480000000,0.0030782223,0.89600277,-0.14334488,-0.16722436,0.04795292,-0.13179417,0.22463128,0.030987658,-0.26304078,0.937758
7460500000000,-0.012471557,1.0427885,-0.32510853,-0.21868975,0.05100725,-0.054061573,0.22579713,0.030267838,-0.26480725,0.9370041
7460520000000,-0.1221385,0.5168934,-0.14299393,-0.17440203,0.027488936,0.017104227,0.22599457,0.029429315,-0.26682615,0.93641025
7460540000000,0.08018041,-0.32300138,0.13367176,0.016035212,0.070249505,0.074067414,0.22571306,0.028795421,-0.26761687,0.93627226
7460560000000,0.0550375,0.04409647,0.12753582,0.13729197,0.11178834,0.1067487,0.22496858,0.027746655,-0.26619333,0.9368887
7460580000000,-0.08269465,1.0941067,0.1718359,-0.025350908,0.064599,0.09025534,0.22430371,0.026951542,-0.26457384,0.93752986
7460600000000,-0.21757317,1.0533266,0.2379942,-0.27473664,-0.009315695,-0.00061086525,0.22401848,0.026318353,-0.26547256,0.937362
7460620000000,-0.06526172,0.09020758,0.30817604,-0.35094208,-0.047800206,-0.056046885,0.22439006,0.02605118,-0.268999,0.9362745
7460640000000,0.096895695,-0.28097582,0.3146057,-0.26542094,-0.021533,-0.0571159,0.22499195,0.025912164,-0.27214772,0.93522346
7460660000000,0.16884851,-0.22060156,0.16178322,-0.14065172,0.043829583,-0.03023783,0.2255205,0.025484916,-0.273949,0.9345817
7460680000000,0.045794964,-0.016948223,0.1883564,-0.024587326,0.05879578,0.0015271631,0.22580753,0.024757676,-0.2744497,0.9343851
7460700000000,0.017465234,-0.22787571,0.20698261,0.10430524,0.077579886,0.040775254,0.22574618,0.024166873,-0.27390024,0.93457663
7460720000000,-0.019127965,0.00015497208,0.135993,0.2041817,0.09132435,0.08536842,0.22536245,0.023545949,-0.27209184,0.9352131
7460740000000,-0.046054482,0.29431105,0.14916992,0.1919644,0.08155051,0.08368854,0.22465271,0.02298734,-0.2697745,0.93606865
7460760000000,-0.12191129,0.784595,0.07873058,0.076052725,0.023365596,0.05787948,0.22414729,0.022543764,-0.2682523,0.9366379
7460780000000,-0.1335789,0.7096615,0.18158913,-0.056199603,-0.048563786,0.025503624,0.2237138,0.022668444,-0.2682357,0.93674326
7460800000000,-0.08090317,0.45843172,0.15248013,-0.12018774,-0.09239337,0.0022907446,0.22347702,0.023144916,-0.26940987,0.93645114
7460820000000,0.0034605265,0.2466321,0.11488056,-0.111941054,-0.11499538,-0.0032070426,0.22326002,0.023887463,-0.27081785,0.9360781
7460840000000,-0.009577155,0.021976471,0.29397392,-0.09025534,-0.111635625,-0.037873644,0.22312659,0.024847763,-0.27204448,0.93572915
7460860000000,0.15991044,-0.009944439,0.15367031,-0.028405234,-0.054825157,-0.041996986,0.22334051,0.02566847,-0.27282673,0.93542814
7460880000000,0.10597348,0.16903877,-0.006863594,0.044135015,0.00015271631,-0.012217305,0.22361408,0.026008604,-0.2727273,0.9353824
7460900000000,0.10886359,0.26962852,0.13298702,0.076358154,0.03176499,0.009773844,0.22360124,0.025991201,-0.271952,0.9356116
7460920000000,0.025281906,0.33692455,0.18252563,0.05497787,0.044593163,0.00015271631,0.22363093,0.025754089,-0.2711204,0.9358524
7460940000000,-0.027026892,0.3803501,0.07574749,0.028252518,0.04046982,-0.009773844,0.22383189,0.025449034,-0.27065045,0.9359488
7460960000000,-0.008650303,0.16348982,0.14570045,0.045662176,0.04505131,0.0009162979,0.22399127,0.025193367,-0.27028656,0.93602264
7460980000000,0.0045228004,0.14508152,0.13734436,0.06994407,0.06307184,0.004428773,0.22409534,0.024783783,-0.2695652,0.9362168
7461000000000,-0.08932841,0.39222527,0.10276699,0.05757405,0.028252518,0.0061086523,0.22418393,0.024433082,-0.26874262,0.9364411
7461020000000,-0.049034238,0.37365818,0.16099834,0.025045475,-0.009773844,-0.00045814895,0.22416398,0.02448896,-0.26833317,0.9365619
7461040000000,-0.032934904,0.13447857,0.14177322,0.044745877,-0.018784106,0.013286319,0.22409771,0.024754377,-0.26816136,0.93662
7461060000000,0.017634988,0.13500023,0.15740108,0.07238753,-0.011301007,0.02397646,0.22383706,0.025017709,-0.2675761,0.9368427
7461080000000,-0.016614676,0.48437834,0.08884907,0.042760566,-0.015118915,0.031306844,0.2235335,0.02519124,-0.26693425,0.93709356
7461100000000,-0.046729922,0.4503703,0.10590744,0.0015271631,-0.033292156,0.02321288,0.22319748,0.025382197,-0.26680994,0.93720394
7461120000000,-0.0071064234,0.20496607,0.14078999,0.0016798794,-0.04260785,0.02443461,0.22290438,0.02573475,-0.26695338,0.9372232
7461140000000,0.030750275,0.20127344,0.11165142,0.02687807,-0.030848695,0.03191771,0.22255605,0.026085759,-0.266923,0.93730485
7461160000000,0.028065324,0.120970726,0.16431713,0.055283304,-0.015271631,0.034513887,0.22214544,0.02632028,-0.26652652,0.9375086
7461180000000,-0.022636533,0.447721,0.12282467,0.01740966,-0.025503624,0.013439035,0.22185898,0.02649267,-0.26605293,0.937706
7461200000000,-0.030048847,0.5549054,0.054793358,-0.042455133,-0.043676864,-0.0053450707,0.22176655,0.026824549,-0.26630035,0.9376483
7461220000000,0.027696848,0.117406845,0.16077805,-0.016340645,-0.028710667,-0.0032070426,0.22176401,0.027136838,-0.26685828,0.9374812
7461240000000,0.0978719,-0.1328435,0.15900517,0.056505036,0.011911872,0.0050396384,0.22173463,0.02727781,-0.26667053,0.9375375
7461260000000,0.018912435,0.26150036,0.13873768,0.079870634,0.019394971,0.010079277,0.22170967,0.027202995,-0.26578525,0.93779695
7461280000000,-0.041402817,0.39905787,0.113762856,0.07238753,0.007941248,0.019394971,0.22160712,0.027225476,-0.26501882,0.93803734
7461300000000,-0.013855696,0.14237738,0.1724844,0.07849618,0.009315695,0.028252518,0.22135071,0.027292341,-0.264289,0.9383019
7461320000000,-0.051841736,0.49091387,0.11355877,0.03634648,-0.004428773,0.018020526,0.22113787,0.027290003,-0.26360482,0.9385446
7461340000000,-0.073482156,0.5482235,0.08452988,-0.0290161,-0.035430185,0.001985312,0.22098818,0.027531354,-0.2636244,0.9385673
7461360000000,0.06879556,0.30314064,0.09504986,-0.054519724,-0.021838432,-0.00580322,0.22097453,0.027796913,-0.2641976,0.93840146
7461380000000,0.07885873,0.092003345,0.12985897,-0.0346666,0.019700404,-0.0125227375,0.22105174,0.02776891,-0.26467615,0.93824923
7461400000000,0.082728624,0.064092636,0.23194504,-0.0061086523,0.04505131,-0.030543262,0.22137444,0.027368104,-0.26472744,0.93817043
7461420000000,-0.0705955,-0.010585785,0.3333454,0.0018325958,0.016646078,-0.06704246,0.22193444,0.02714593,-0.2646356,0.9380705
7461440000000,-0.043827772,-0.19300842,0.24694538,0.071318515,0.021991149,-0.0804815,0.2227172,0.02743623,-0.26437813,0.9379491
7461460000000,0.17819309,0.04548645,-0.0799942,0.204029,0.054825157,-0.018478673,0.22333378,0.027572343,-0.26294422,0.93820167
7461480000000,0.081652164,0.4110942,0.05418396,0.17821993,0.08002335,-0.027030786,0.22356547,0.027427921,-0.26058084,0.9388098
7461500000000,-0.058636665,0.6484089,0.08785343,0.060628377,0.03924809,-0.06383542,0.22410779,0.027172117,-0.2592098,0.93906754
7461520000000,-0.018366814,0.50556374,0.04467678,-0.0015271631,0.013133603,-0.077579886,0.22494738,0.027238376,-0.2590988,0.93889546
7461540000000,0.034427166,0.2868185,0.22641373,-0.02275473,0.0125227375,-0.11102476,0.22577718,0.027343057,-0.25914076,0.9386816
7461560000000,-0.036099672,0.17265081,0.19234467,-0.034208454,-0.00580322,-0.16050485,0.22715646,0.02758882,-0.25941235,0.93826663
7461580000000,0.08048153,-0.39191055,0.3006792,0.063988134,0.039553523,-0.17852537,0.22883129,0.028013052,-0.2594489,0.9378368
7461600000000,0.39919794,-0.096943855,0.15289402,0.17165314,0.12721269,-0.27488935,0.23079929,0.028094767,-0.25786644,0.9377885
7461620000000,-0.09566319,0.47405243,-0.37573338,0.13072516,0.086437434,-0.3399465,0.23473787,0.028269224,-0.25538886,0.93748367
7461640000000,-0.22594869,0.3481145,0.55540943,-0.0729984,-0.0012217305,-0.35888332,0.2376256,0.028687753,-0.25502536,0.93684214
7461660000000,-0.08450639,0.8560126,-0.37017155,-0.068264194,-0.012370021,-0.23304509,0.24084698,0.029634612,-0.2560265,0.9357164
7461680000000,-0.04067731,1.1858401,-0.7986431,-0.0580322,0.045814894,-0.033444874,0.24206011,0.029697169,-0.25645658,0.93528336
7461700000000,-0.017313838,0.90546894,-0.24454594,-0.07437284,0.07422013,0.1255328,0.24148652,0.028728314,-0.25681666,0.9353632
7461720000000,-0.1023469,0.63133335,0.2281599,-0.15332718,0.078343466,0.114689946,0.24039376,0.02735522,-0.25754192,0.9354864
7461740000000,-0.12106311,0.7376914,0.120479584,-0.26297748,0.06780604,0.07315111,0.23974589,0.025955385,-0.2592157,0.9352302
7461760000000,0.042545795,0.41154575,0.22611523,-0.35995236,0.036651913,0.01282817,0.23960881,0.024711138,-0.26208046,0.9345003
7461780000000,-0.106502056,0.17998362,0.3746872,-0.42088616,-0.019089539,-0.032375857,0.23982239,0.023539094,-0.26576552,0.9334344
7461800000000,-0.23779964,-0.27149916,0.56875134,-0.41706824,-0.10399981,-0.09285152,0.24038114,0.023394477,-0.2700046,0.9320768
7461820000000,0.10454774,-0.9050698,0.42545986,-0.25518894,-0.06246097,-0.12461651,0.24126783,0.02387194,-0.27358884,0.9307896
7461840000000,0.27723503,-0.6849122,0.1446228,-0.01572978,0.042455133,-0.089186326,0.24242565,0.02394838,-0.27475727,0.9301424
7461860000000,0.25440323,-0.56286526,0.16688251,0.22617286,0.14614952,-0.032528576,0.24316682,0.023490002,-0.27341762,0.9303553
7461880000000,0.20202005,-0.71197176,0.4078865,0.43264532,0.2593123,-0.0154243475,0.24381794,0.02235456,-0.26954955,0.9313411
7461900000000,-0.121825695,0.8191304,-0.16633415,0.38087448,0.18173242,0.0067195175,0.24433707,0.021097442,-0.26418537,0.93277025
7461920000000,-0.6422485,1.5558558,0.07379055,-0.036651913,-0.021227567,-0.065973446,0.24496922,0.020786406,-0.2613177,0.93341905
7461940000000,-0.45218563,1.5322225,-0.30298805,-0.24404067,-0.21288654,0.15836681,0.24483761,0.021721926,-0.26362514,0.93278325
7461960000000,0.07058799,0.419765,-0.20114994,-0.24877487,-0.20815234,-0.044135015,0.24271439,0.022792889,-0.26695582,0.9323652
7461980000000,-0.036717057,-0.3324604,0.14124298,-0.05879578,-0.18997909,-0.004276057,0.24327154,0.024657965,-0.2689286,0.9316052
7462000000000,0.20078719,-0.30594397,0.07197189,0.150731,-0.099265605,0.062002823,0.24240062,0.026023693,-0.26865792,0.93187326
7462020000000,-0.11734915,0.70638514,0.14321423,0.13194689,-0.15439619,0.03970624,0.2414772,0.027177654,-0.2669943,0.9325579
7462040000000,-0.35495567,0.64353085,0.46557522,-0.09117164,-0.27779096,-0.019242255,0.240754,0.029351315,-0.2666184,0.9327865
7462060000000,-0.21134615,0.6003909,0.39609337,-0.32055154,-0.34162638,-0.123242065,0.2406327,0.032049615,-0.2692549,0.9319714
7462080000000,-0.040420055,-0.069196224,0.35734558,-0.3652974,-0.29168814,-0.30665436,0.24145365,0.034811538,-0.27377796,0.9303408
7462100000000,0.13610697,-0.67999935,0.56676674,-0.42424592,-0.2180789,-0.47647488,0.24660097,0.037835833,-0.2775435,0.92775327
7462120000000,0.38553023,-0.4538555,0.5940237,-0.46013424,-0.14737125,-0.16523905,0.2482164,0.03900581,-0.2822541,0.9258508
7462140000000,0.22867441,-0.46815395,0.46324062,-0.3817908,-0.08307768,-0.33750305,0.25026622,0.039378483,-0.28640693,0.92400604
7462160000000,0.19788122,-0.69577694,0.5965347,-0.5233588,-0.20189096,-0.5279403,0.25372887,0.04024907,-0.28985557,0.9219465
7462180000000,1.6034517,-0.3270402,1.7587624,-0.58016926,-0.52931476,-1.1081096,0.26112315,0.04615665,-0.2971248,0.91727924
7462200000000,-0.3196931,-1.3244715,1.5068359,-0.72524977,-0.36865717,-0.977079,0.26995593,0.051724106,-0.30270064,0.91259015
7462220000000,0.6050086,-0.64994335,1.7619162,-1.1325442,-0.39920044,-1.16492,0.27870783,0.055502925,-0.31162116,0.9067159
7462240000000,0.75634885,-0.34678555,1.9630442,-1.4094188,-0.5688683,-1.3319917,0.28950846,0.0601342,-0.3241339,0.89861333
7462260000000,0.8407335,-1.438201,2.0805573,-1.3917037,-0.74097955,-1.6061175,0.30095097,0.06627545,-0.33855388,0.8890543
7462280000000,1.1211212,-2.537239,2.7168345,-0.76144356,-0.75762564,-1.859932,0.31547436,0.07627418,-0.34984446,0.8787872
7462300000000,0.072393894,-2.0070004,2.6574888,-0.258396,-0.80954915,-1.7243198,0.32889718,0.0876712,-0.35405475,0.871083
7462320000000,0.26945066,-1.0588989,2.6434393,-0.2556471,-1.0001391,-1.7531832,0.3417098,0.100522265,-0.35708147,0.8634944
7462340000000,0.1608653,-0.22891092,2.8660154,-0.34223726,-1.1997393,-1.8753563,0.35358554,0.11543958,-0.3614326,0.85499555
7462360000000,-0.1695714,-0.20415306,2.4729428,-0.48792863,-1.3283265,-2.0271564,0.36895156,0.13074522,-0.36741376,0.8436751
7462380000000,-0.52317953,-0.42425108,1.6446757,-0.6469063,-1.3956743,-2.1386392,0.38533717,0.14636329,-0.3750776,0.83030707
7462400000000,-0.6030412,-0.18977594,0.771245,-0.6743952,-1.3648257,-2.1293235,0.4022331,0.16158052,-0.38354722,0.8154704
7462420000000,-0.66516256,0.6026788,-0.053765774,-0.6649268,-1.2799155,-2.0845776,0.4151824,0.17770076,-0.39061913,0.8021614
7462440000000,-0.98835325,0.833745,-0.8596735,-0.90224797,-1.1841623,-2.0522017,0.43480688,0.18910187,-0.3994864,0.78459805
7462460000000,-1.2418003,0.7828407,-1.5409646,-1.2270756,-1.0218248,-1.9850066,0.44816378,0.20112059,-0.4089267,0.7690766
7462480000000,-1.3224607,0.41515684,-2.0682936,-1.4445436,-0.79427755,-1.8930714,0.46796012,0.20641515,-0.42135906,0.7489076
7462500000000,-1.2583532,0.5524759,-2.4467237,-1.3982705,-0.52595496,-1.6882788,0.48162743,0.21198374,-0.4316725,0.7326369
7462520000000,-1.1285868,0.4315338,-3.4379668,-1.6586518,-0.25503623,-1.4523321,0.49960387,0.21108048,-0.44238693,0.7142372
7462540000000,-0.800797,1.0332379,-4.331176,-2.189799,-0.046883907,-1.3550519,0.51276684,0.20846102,-0.4541117,0.6981381
7462560000000,-0.4792719,1.6750569,-4.316281,-2.5905268,0.22693644,-1.2450961,0.5320375,0.19792077,-0.4695672,0.6762175
7462580000000,-0.7744703,1.6833215,-3.260157,-2.7462974,0.44837508,-1.1557571,0.54702234,0.18654619,-0.48342124,0.6574733
7462600000000,-0.8299508,1.0805106,-2.2293437,-2.8276951,0.47968194,-1.0407617,0.5658253,0.16990657,-0.49812418,0.63470143
7462620000000,-0.35532665,0.9096441,-1.4948103,-2.8777862,0.5119051,-0.96959585,0.5791732,0.15545303,-0.5117324,0.615242
7462640000000,-0.24881172,1.4688396,-0.62821937,-2.7210991,0.527024,-0.8950703,0.5943078,0.13833007,-0.52494794,0.59337413
7462660000000,-0.249084,1.2740092,0.017483473,-2.4225388,0.42455134,-0.96852684,0.6055091,0.12503356,-0.53574085,0.5750714
7462680000000,0.112466335,0.4090767,0.61816645,-2.1300871,0.34330627,-1.1759156,0.6203876,0.1114182,-0.54545116,0.55243856
7462700000000,0.046599865,-0.29733133,1.0435746,-2.121535,0.36667186,-1.2023355,0.6311337,0.10339307,-0.55326724,0.53373736
7462720000000,-0.7784624,-0.644794,1.7905161,-1.8845193,0.37965274,-1.1711814,0.64521956,0.09066866,-0.5588005,0.5130429
7462740000000,-0.062328815,0.13198566,0.20672703,-1.472338,0.2510656,-1.1244502,0.66243917,0.06505957,-0.5384437,0.51673967
7462760000000,0.34039974,0.09238386,-0.1590929,-1.2431108,0.11988231,-1.1073459,0.6732476,0.057600703,-0.5437133,0.49779084
7462780000000,0.17765093,1.0281279,-0.090456486,-1.0574077,0.0571159,-0.7787005,0.67922974,0.054899264,-0.54831326,0.48475325
7462800000000,-0.15971375,2.5024977,0.12800503,-0.9419542,-0.029626964,-0.40607268,0.68529177,0.04791661,-0.5527747,0.47171953
7462820000000,0.1054821,3.146042,-0.3411069,-1.0609202,-0.08002335,-0.24007004,0.6866054,0.04331203,-0.55754197,0.4645902
7462840000000,0.8879957,2.2336202,-1.3203659,-1.3529139,-0.06169739,-0.24969117,0.6904126,0.033397615,-0.56392586,0.4518879
7462860000000,1.5450959,1.9504681,-0.8744409,-1.5047138,0.052534413,-0.2948952,0.68873066,0.03461448,-0.5812031,0.43203574
7462880000000,1.6111822,0.9983368,-0.27333975,-1.4596626,0.26221392,-0.33536503,0.69350576,0.022474004,-0.58662015,0.41763797
7462900000000,1.0221362,0.4178233,0.47441912,-1.1070405,0.3222314,-0.2866485,0.69707584,0.013785342,-0.5896903,0.40762797
7462920000000,0.17099953,0.7820158,0.8159795,-0.77763146,0.17180584,-0.19532417,0.7072168,-0.0011771601,-0.5792463,0.40535998
7462940000000,-0.018917084,2.121758,0.61687446,-0.7325801,0.0013744468,-0.15439619,0.7082038,-0.005250853,-0.5816348,0.40015084
7462960000000,0.51280785,2.6967244,-0.4170084,-1.0526736,-0.00061086525,-0.0033597588,0.71073943,-0.014214847,-0.5850683,0.3903108
7462980000000,1.1227555,1.6083016,-0.83178186,-1.6606371,0.05100725,0.051159963,0.7102683,-0.024170564,-0.590514,0.38239756
7463000000000,1.1987138,0.096405506,-0.5454509,-1.8419114,0.08109236,0.04046982,0.71172523,-0.041547522,-0.59701234,0.36782783
7463020000000,0.62732124,-0.8318553,0.07072067,-1.3895657,0.04627304,-0.05497787,0.7114157,-0.05400772,-0.6026048,0.35754496
7463040000000,-0.11763954,-0.73159266,0.6166167,-0.64873886,-0.15821409,-0.10705414,0.71223885,-0.0637472,-0.6060741,0.34831932
7463060000000,0.007863998,-0.4158969,0.22576666,-0.08460484,-0.3407101,-0.20295998,0.7099831,-0.06605753,-0.609112,0.34719282
7463080000000,0.104607105,-0.2162137,-0.35169697,0.2180789,-0.38148534,-0.3136793,0.7064651,-0.07035187,-0.61332124,0.3461137
7463100000000,-0.12700701,0.15495157,-0.527591,0.41141775,-0.4202753,-0.32345316,0.70502883,-0.065087005,-0.6154834,0.34623426
7463120000000,0.10132408,1.2829881,-0.82366085,0.5381723,-0.46410486,-0.23930646,0.7050511,-0.06097116,-0.6168732,0.34446043
7463140000000,1.6723437,1.8352633,-0.70946527,0.70646566,-0.42012256,-0.07651087,0.70289105,-0.053016488,-0.6191665,0.3460725
7463160000000,2.8774886,2.0730925,-0.3751949,1.0210613,-0.036651913,-0.04428773,0.70241517,-0.046977956,-0.6178508,0.35023782
7463180000000,1.3918495,2.2913275,-0.4167385,1.0106765,0.09819659,-0.05787948,0.7047308,-0.029668285,-0.617325,0.3484022
7463200000000,-0.117170334,2.5063238,-0.6588583,0.72433347,0.013286319,-0.086132,0.7063755,-0.02441238,-0.6135899,0.35205847
7463220000000,-0.08655834,2.281045,0.12053037,0.53221637,-0.15134187,0.0571159,0.70615244,-0.019726068,-0.6121768,0.35524544
7463240000000,1.0945415,1.5705616,-0.16765356,0.39690968,-0.05375614,0.0711658,0.7048588,-0.016707998,-0.6116559,0.35884818
7463260000000,1.2461991,0.71933556,0.6308403,0.4578435,0.007788532,-0.033444874,0.7050206,-0.014198578,-0.61017233,0.3611566
7463280000000,0.7745557,0.97902155,0.51154184,0.56138515,-0.094225965,0.030848695,0.70504445,-0.010204591,-0.60839903,0.36422363
7463300000000,1.2176738,1.8272207,-0.44318628,0.39843684,-0.12232576,-0.010079277,0.70411223,-0.005033123,-0.6080775,0.36666393
7463320000000,1.510787,2.0600667,-0.51233554,0.14782938,-0.01282817,-0.11301007,0.7041054,-0.000659992,-0.6083953,0.36618352
7463340000000,0.95038843,1.6714406,0.11845827,-0.00076358154,0.030543262,-0.15577064,0.7049448,0.00041425275,-0.6080349,0.36516604
7463360000000,0.6460681,1.0766916,0.44172454,0.03894266,-0.03023783,-0.14019357,0.70631564,4.3939854e-05,-0.60797495,0.36260816
7463380000000,0.7646651,1.2172484,0.13862467,0.09468412,-0.054061573,-0.14508049,0.70644194,0.0017238792,-0.60810304,0.362143
7463400000000,0.6339054,1.4631658,-0.5044236,-0.029932396,0.028252518,-0.1553125,0.70743537,0.0021261808,-0.60808825,0.36022136
7463420000000,0.43453884,0.7003684,-0.35723686,-0.06291912,0.0720821,-0.1695151,0.708512,0.0021555398,-0.6079388,0.35835242
7463440000000,0.4660244,0.5198207,0.11475563,0.12721269,0.046731193,-0.12568553,0.70946854,0.002966757,-0.6073954,0.3573744
7463460000000,0.5515213,1.1163893,-0.3023858,0.13454308,0.081397794,-0.12110403,0.7101608,0.0048012375,-0.60639644,0.35767594
7463480000000,0.34560394,1.0934534,-0.6021223,-0.0693332,0.13988814,-0.124311075,0.7120609,0.0042546475,-0.60538906,0.35560554
7463500000000,0.18130875,0.8385229,-0.26904035,-0.10338894,0.13591751,-0.030543262,0.71328086,0.003344209,-0.6047782,0.35420707
7463520000000,0.4708748,0.5948515,-0.33849144,-0.12965615,0.122020334,0.0036651916,0.7146697,0.0009656151,-0.6042706,0.35228318
7463540000000,0.5832548,0.9527228,-0.27559257,-0.03436117,0.1207986,0.064751714,0.7152651,-0.0003376244,-0.60381615,0.35185492
7463560000000,0.6047487,1.3319159,-0.7733195,-0.0936151,0.16523905,0.04886922,0.7164615,-0.0024988146,-0.60302293,0.35077074
7463580000000,0.6234102,1.1320245,-0.832268,-0.18784106,0.22907446,0.01740966,0.7174271,-0.0042768572,-0.602425,0.3498061
7463600000000,0.6425142,0.6611409,-0.51373696,-0.14966199,0.26267207,0.05222898,0.71887684,-0.0068428568,-0.60134494,0.3486454
7463620000000,0.54136276,0.806622,-0.07298541,-0.024281893,0.23900102,0.0664316,0.72018784,-0.0086942045,-0.59973097,0.3486784
7463640000000,0.40607262,1.124507,0.14402938,0.12629639,0.19013181,0.06261369,0.72127056,-0.00968565,-0.59806323,0.34927842
7463660000000,0.49838638,0.49739218,0.061944723,0.45799622,0.17058411,-0.03176499,0.72227055,-0.008415429,-0.59584194,0.3510369
7463680000000,0.48461914,-0.017848015,0.20135236,0.8775079,0.15057829,-0.02367103,0.72344387,-0.0036691567,-0.59227407,0.35472095
7463700000000,0.42500877,0.09163427,0.065043926,1.0821478,0.118966006,0.02397646,0.7242618,0.003481829,-0.58750254,0.36093417
7463720000000,0.33239555,0.550055,-0.2738638,1.0852021,0.12873985,0.07070765,0.7248639,0.01047609,-0.5826174,0.36745003
7463740000000,0.3674059,0.92415094,-0.8481066,1.1270463,0.22922719,0.0143553335,0.7274893,0.022740485,-0.5719927,0.3782414
7463760000000,0.48154163,0.5998478,-0.5945513,1.2964088,0.23793201,0.023365596,0.7284474,0.030642087,-0.5656032,0.3853811
7463780000000,0.5548897,0.98769855,-0.3572359,1.0670289,0.23258694,0.0795652,0.7291008,0.03892825,-0.5591723,0.39271235
7463800000000,0.6102581,1.3491037,-0.38156295,0.50442195,0.16875152,0.010842858,0.73004764,0.053519003,-0.55829424,0.39047885
7463820000000,0.38694477,1.6268046,-0.5029352,0.089186326,0.1375974,-0.020158553,0.7324518,0.054072175,-0.5570148,0.38771784
7463840000000,0.3097973,1.0309815,-0.5222504,-0.25228736,0.14614952,-0.06078109,0.7334281,0.05295864,-0.5564936,0.3867732
7463860000000,0.24827862,0.90451765,-0.18695974,-0.37048978,0.19440787,-0.033750303,0.73623616,0.047961704,-0.5568046,0.3816081
7463880000000,0.06078911,0.9601362,0.07548714,-0.44516805,0.22983804,0.0154243475,0.7376728,0.044093706,-0.556695,0.3794541
7463900000000,0.032234192,0.66523457,0.29382086,-0.5757405,0.20525073,-0.032986723,0.7404899,0.037491485,-0.557038,0.37413597
7463920000000,-0.041402817,0.23317075,0.6394391,-0.54550266,0.1957823,-0.066737026,0.7420532,0.032547187,-0.5578429,0.37028238
7463940000000,0.021206856,0.1728735,0.77697134,-0.27000242,0.17211129,-0.05665775,0.74358064,0.028902093,-0.5579976,0.36727542
7463960000000,-0.0015554428,0.006403923,0.75594044,-0.09315695,0.12873985,-0.06352998,0.7446736,0.027656702,-0.55735254,0.36613443
7463980000000,-0.023673058,0.123589754,0.5580344,0.020158553,0.09483683,-0.052687127,0.7455263,0.027402911,-0.556621,0.36553082
7464000000000,0.102184296,0.37310243,0.41224933,-0.010231993,0.05589417,-0.066737026,0.74611634,0.027788103,-0.555885,0.3654177
7464020000000,0.12283325,0.70475054,0.30551076,-0.12522738,0.03924809,-0.051923547,0.74674153,0.027332015,-0.55580676,0.3642925
7464040000000,0.13424778,0.4755838,0.12343025,-0.19349156,0.0061086523,-0.04260785,0.747071,0.026098974,-0.55627966,0.36298302
7464060000000,0.13890266,0.31603384,0.15110588,-0.12858713,0.009010263,-0.029932396,0.7472412,0.024980376,-0.55696917,0.36165172
7464080000000,0.07000828,0.35552454,0.17544365,-0.10308351,0.021227567,-0.025961773,0.74746495,0.02433543,-0.5571321,0.36098167
7464100000000,0.08731079,0.62740326,0.34576988,-0.1769982,0.011148291,-0.024281893,0.74772465,0.023450227,-0.55746716,0.35998377
7464120000000,-0.02287674,0.5935383,0.331213,-0.15989397,0.014813482,-0.006414085,0.7479103,0.02195945,-0.5580677,0.35875973
7464140000000,-0.10416889,0.01884818,0.24662757,-0.0364992,-0.019089539,-0.004428773,0.74797887,0.021139335,-0.5584226,0.35811302
7464160000000,-0.019844055,-0.24559069,0.26112485,0.10140363,-0.009468411,0.007330383,0.7478067,0.021549856,-0.5584908,0.35834172
7464180000000,-0.018561363,0.10546398,0.2916317,0.1366811,0.024281893,0.02321288,0.7478165,0.022501701,-0.55785596,0.35925066
7464200000000,-0.1597023,0.3773675,0.1670239,0.058643065,0.019394971,0.046578474,0.7478486,0.023002774,-0.5572395,0.36010784
7464220000000,-0.10260391,0.24341536,0.3096161,0.015577064,-0.022296581,0.060322944,0.74766135,0.022781262,-0.5571906,0.36058602
7464240000000,0.05092621,0.22860861,0.2741003,0.09682214,-0.01282817,0.08353582,0.74723,0.022763962,-0.55729806,0.3613145
7464260000000,0.024725914,0.41841245,0.21981144,0.121256754,-0.01450805,0.087659165,0.746859,0.023321625,-0.55686307,0.36271372
7464280000000,-0.10097408,0.5660944,0.0926559,0.041080687,-0.02031127,0.106901415,0.7463888,0.02349293,-0.55669636,0.36392456
7464300000000,-0.05000019,0.20734262,0.20177197,-0.023518313,-0.023060163,0.10247265,0.745854,0.022924887,-0.55695534,0.3646602
7464320000000,0.046349525,0.3392849,0.3573482,-0.029168816,0.016340645,0.13271047,0.74544007,0.02214988,-0.5571182,0.36530533
7464340000000,-0.002922058,0.7994418,0.025275946,-0.15622878,0.022602014,0.17195857,0.74516106,0.020446949,-0.5571719,0.36589128
7464360000000,-0.041909218,0.89418936,-0.18831396,-0.3576616,-0.041691553,0.17195857,0.7445585,0.017494397,-0.55818164,0.36573207
7464380000000,0.18100071,0.6436577,-0.026161194,-0.47876564,-0.07040222,0.16890424,0.74363804,0.01340558,-0.56040734,0.3643712
7464400000000,0.5755329,0.57589865,-0.2253344,-0.5297729,-0.069485925,0.14462234,0.74270535,0.00890656,-0.5628559,0.36263293
7464420000000,1.0095673,0.56419826,-0.41899347,-0.5917757,-0.095753126,0.08445212,0.74325913,0.0023551267,-0.5654203,0.3575755
7464440000000,0.995101,0.83703136,-0.14229107,-0.61712664,-0.08124508,0.05467244,0.74248827,-0.0022298696,-0.568397,0.3544448
7464460000000,0.49814034,0.90542746,0.004631996,-0.6096435,-0.075594574,0.02687807,0.7432915,-0.0088433055,-0.5709759,0.34846243
7464480000000,0.26687908,0.68933177,0.077596426,-0.6198755,-0.1049161,-0.021838432,0.7427121,-0.013084321,-0.57376957,0.34495807
7464500000000,0.4023943,0.4215517,0.26611137,-0.6412558,-0.12568553,-0.08750644,0.7421611,-0.01703625,-0.57678914,0.340912
7464520000000,0.4292097,0.43762684,0.5506854,-0.64461553,-0.13316862,-0.122783914,0.7416745,-0.020730782,-0.5799959,0.3362946
7464540000000,0.116313934,0.39237356,0.3745408,-0.6293439,-0.1469131,-0.13316862,0.7411782,-0.024255523,-0.5831717,0.33162823
7464560000000,-0.057733536,0.17876244,0.20593715,-0.56245416,-0.16768251,-0.17027868,0.7405859,-0.027310358,-0.5863411,0.32709453
7464580000000,-0.14566803,-0.19552517,0.44668818,-0.39721513,-0.17150041,-0.19379699,0.7400463,-0.029414918,-0.589335,0.3227234
7464600000000,-0.05045414,0.09687185,0.66505694,-0.13209961,-0.15943582,-0.17638734,0.7396002,-0.029497284,-0.59136367,0.32001632
7464620000000,0.03929615,0.5737643,0.38219213,-0.13622294,-0.14049901,-0.18096884,0.7392778,-0.028567536,-0.59271085,0.31834903
7464640000000,-0.08969593,0.54218674,0.046056986,-0.27305678,-0.15974127,-0.19181168,0.73896986,-0.028503463,-0.5944932,0.31573555
7464660000000,-0.0100393295,0.4447899,-0.023190737,-0.29565877,-0.15347989,-0.18417588,0.738497,-0.029176086,-0.59674674,0.31251302
7464680000000,0.017490387,0.22130585,-0.15712452,-0.29031372,-0.098807454,-0.16233744,0.7381901,-0.029934855,-0.5986755,0.30946243
7464700000000,-0.1122942,0.29982185,0.0033886433,-0.20677789,-0.074830994,-0.11759156,0.73806816,-0.030749064,-0.6001138,0.3068766
7464720000000,-0.020569801,0.5339527,-0.31777596,-0.2434298,-0.027947085,-0.07376198,0.7379658,-0.03140962,-0.6010968,0.30512694
7464740000000,-0.061457634,0.5783992,-0.4739375,-0.3390302,-0.014049901,-0.043066,0.737982,-0.03327025,-0.6020898,0.30292508
7464760000000,-0.009613037,0.45501018,-0.1419208,-0.36667186,-0.01695151,-0.0030543262,0.7378153,-0.035825584,-0.6033712,0.30048007
7464780000000,0.122493744,0.27761793,-0.08725166,-0.36453384,-0.0021380284,0.025503624,0.7375422,-0.038602993,-0.60455585,0.29841837
7464800000000,0.14849472,0.1993289,-0.292727,-0.33261612,0.026267206,0.035124753,0.7373685,-0.04146126,-0.6055036,0.29653683
7464820000000,0.12900448,0.15158701,-0.1433618,-0.2910773,0.01572978,0.02031127,0.7372788,-0.04404904,-0.6062762,0.29480308
7464840000000,0.16989994,0.34734678,0.07541132,-0.2649628,0.026419923,0.021991149,0.7372159,-0.0461882,-0.6069224,0.2932995
7464860000000,0.07341766,0.33936357,0.04699707,-0.22861631,0.024892759,0.028099801,0.7372067,-0.048228692,-0.6074226,0.29195565
7464880000000,0.048761368,0.26341105,0.066863775,-0.18081611,0.019242255,0.043066,0.7371147,-0.050036594,-0.6078678,0.29095545
7464900000000,0.10776234,0.27169943,0.0028243065,-0.08384126,0.03481932,0.05681047,0.73706675,-0.05137004,-0.60803413,0.2904965
7464920000000,0.14684105,0.40474033,-0.12856746,-0.028405234,0.05589417,0.060170226,0.7371212,-0.05219302,-0.6077891,0.2907243
7464940000000,0.25484943,0.56478214,-0.21181011,-0.112399206,0.06536258,0.052381694,0.73731375,-0.05299374,-0.60746723,0.29076415
7464960000000,0.11272526,0.7662988,-0.042839527,-0.2452624,0.06994407,0.058184914,0.73749524,-0.05487211,-0.60741735,0.29005882
7464980000000,0.116666794,0.46456718,0.109974384,-0.28344148,0.042455133,0.059406646,0.7374963,-0.05772877,-0.6078993,0.28848773
7465000000000,0.344162,0.14168692,0.088312626,-0.018936822,0.07376198,0.07788532,0.7374686,-0.059632584,-0.6080505,0.28785178
7465020000000,0.24952984,0.3268261,0.37188125,0.21181752,0.12705997,0.09682214,0.73793656,-0.059437376,-0.60683656,0.28925136
7465040000000,0.008833885,0.507576,0.2081089,0.29733866,0.111941054,0.100334615,0.73863006,-0.05834952,-0.60492563,0.2916951
7465060000000,0.23858738,0.17987871,-0.12988305,0.41141775,0.11728613,0.092240654,0.73929715,-0.057008818,-0.6031271,0.2939854
7465080000000,0.4496317,-0.111086845,-0.1185534,0.59849524,0.19715676,0.082924955,0.7402126,-0.05423691,-0.600468,0.29762697
7465100000000,0.25400543,0.23048306,-0.25656438,0.6772968,0.236863,0.07376198,0.7417605,-0.050314806,-0.5966386,0.30212954
7465120000000,0.011564255,1.2160063,0.2812612,0.44715336,0.19165897,0.10369437,0.74315715,-0.04690011,-0.5930606,0.30626288
7465140000000,-0.32930326,1.3479438,0.8619156,0.01740966,0.117438845,0.14172074,0.7440644,-0.04654988,-0.59097004,0.30814883
7465160000000,-0.27204037,0.30004978,0.86384296,-0.16279559,0.022602014,0.13271047,0.74398774,-0.048887994,-0.5908436,0.3082143
7465180000000,0.12824535,-0.72503614,0.5969696,0.03283401,0.0067195175,0.122783914,0.7434806,-0.05053977,-0.59122974,0.3084311
7465200000000,0.19781685,-0.9277687,0.24423194,0.37751472,0.040927973,0.083383106,0.7433932,-0.049627427,-0.59032166,0.3105222
7465220000000,0.06470966,-0.5692849,-0.066293,0.58383447,0.046578474,0.035430185,0.7437592,-0.046167668,-0.5882582,0.31407493
7465240000000,0.011293411,0.14709997,0.033530474,0.4689918,0.04596761,0.020922136,0.74423957,-0.042004924,-0.5860068,0.31770918
7465260000000,0.0695591,0.32111406,0.15260601,0.16890424,0.013744468,0.0067195175,0.7444994,-0.039862663,-0.5847996,0.31959534
7465280000000,0.21905136,0.3592286,-0.03322029,0.06383542,0.046120327,-0.008093964,0.7445889,-0.039627433,-0.584556,0.3198616
7465300000000,0.22644997,0.25329638,-0.44994283,0.24388795,0.0852157,-0.041080687,0.7451029,-0.038736347,-0.58373934,0.32026482
7465320000000,0.2396698,0.30179358,-0.73055553,0.44898596,0.1330159,-0.01282817,0.7457641,-0.036220293,-0.5820895,0.3220186
7465340000000,0.39166832,0.16431475,-0.95422435,0.6618725,0.23319781,-0.050701816,0.74415606,-0.0326549,-0.5832473,0.32401875
7465360000000,0.39887333,-0.040124416,-1.0807369,0.8162687,0.32834008,-0.05299256,0.741753,-0.02865996,-0.5850463,0.32665265
7465380000000,0.3479023,0.35580444,-1.0987322,0.86361074,0.43799037,-0.041691553,0.74272794,-0.022748537,-0.5820022,0.33031976
7465400000000,0.21083927,0.9365549,-0.9362664,0.63499445,0.50900346,-0.07238753,0.74582,-0.018088132,-0.57590586,0.33430222
7465420000000,-0.10807514,0.87500143,-0.25123286,0.18463401,0.48197266,-0.10247265,0.7491903,-0.016163457,-0.57063913,0.33589244
7465440000000,-0.1987958,0.4470091,0.6283488,-0.12232576,0.3622431,-0.11102476,0.75199616,-0.017398968,-0.56761736,0.3346782
7465460000000,-0.1550417,0.10114622,1.1349363,-0.118966006,0.28237244,-0.11652254,0.75419325,-0.019032314,-0.5657172,0.3328577
7465480000000,-0.27416992,0.3616283,1.1210084,-0.110872045,0.20265454,-0.085673854,0.7577782,-0.019887177,-0.5612793,0.33217794
7465500000000,-0.24383354,0.798053,1.0402086,-0.2321288,0.08002335,-0.0786489,0.7691227,-0.017243309,-0.5457287,0.33216465
7465520000000,-0.20019102,0.90363383,0.8915677,-0.40378192,0.01160644,-0.04932737,0.7726358,-0.017433377,-0.5422187,0.3297406
7465540000000,-0.22777414,0.46704173,0.37405634,-0.5459608,-0.05131268,0.026419923,0.77326894,-0.02248627,-0.5438558,0.32522362
7465560000000,-0.021371365,-0.31763697,0.3443408,-0.52488595,-0.14492778,0.028863383,0.7723926,-0.026881892,-0.5465578,0.32243085
7465580000000,0.21842861,-0.24867678,0.10261488,-0.3575089,-0.12293663,0.061850104,0.7713666,-0.030184206,-0.54923177,0.3200421
7465600000000,0.22442913,0.084990025,-0.2663083,-0.3642284,-0.12339478,0.030390546,0.77050674,-0.032502286,-0.55094683,0.3189369
7465620000000,0.24561167,0.15412998,-0.6962068,-0.68676525,-0.14065172,-0.06261369,0.769819,-0.036195118,-0.5535533,0.31566995
7465640000000,0.4459486,-0.8253708,-0.95282674,-1.0166324,-0.15012014,-0.19761491,0.76863176,-0.042414136,-0.55814195,0.30965123
7465660000000,0.42164326,-1.0993414,-0.5314956,-0.75884736,-0.092240654,-0.19624045,0.76861805,-0.049586084,-0.5622878,0.30099836
7465680000000,0.28344154,-0.6998949,-0.2360785,-0.1881465,-0.056352317,-0.19425514,0.76859885,-0.051869977,-0.56417674,0.2971024
7465700000000,0.13581371,-0.29012918,-0.48655653,0.18051068,-0.056046885,-0.19165897,0.76898444,-0.05020049,-0.5645391,0.2957
7465720000000,0.11598778,0.4371214,-0.8193803,0.42959097,0.018784106,-0.110872045,0.769441,-0.046607785,-0.56382805,0.296456
7465740000000,0.2448368,0.6873932,-0.89902115,0.42180246,0.0936151,-0.08277224,0.77123153,-0.044445977,-0.5617744,0.296034
7465760000000,0.33246136,0.8343744,-0.7444658,0.19165897,0.18173242,-0.0571159,0.7723574,-0.041831084,-0.5597602,0.29729244
7465780000000,0.28367424,0.8352814,-0.62700725,-0.19013181,0.21044308,-0.054367006,0.77456194,-0.043846432,-0.5580042,0.29455492
7465800000000,0.18769073,0.9021864,-0.26026034,-0.4793765,0.19715676,-0.016035212,0.7756822,-0.047219034,-0.55754167,0.29195002
7465820000000,0.17563534,0.90021515,-0.0700593,-0.5523749,0.18203785,0.01786781,0.7765534,-0.05248809,-0.557722,0.28836817
7465840000000,0.18845081,0.7144666,-0.030646324,-0.48792863,0.17211129,0.04734206,0.77717113,-0.057291236,-0.5578609,0.2855065
7465860000000,0.09738064,0.47209668,0.28406048,-0.40882155,0.12889257,0.099571034,0.77766687,-0.061783236,-0.55780584,0.28331903
7465880000000,0.088560104,0.15625,0.5674434,-0.3297145,0.022907447,0.102319926,0.77757365,-0.06540507,-0.55811846,0.28214386
7465900000000,0.23416805,0.21286488,0.51441073,-0.3119994,-0.04046982,0.082924955,0.7770088,-0.06836022,-0.55911803,0.28101826
7465920000000,0.24578667,0.23246193,0.05298567,-0.3387248,-0.03023783,0.049021937,0.77632767,-0.07107332,-0.560355,0.2797614
7465940000000,0.10849476,-0.013214588,-0.5810678,-0.30543262,-0.01817324,0.004428773,0.7761542,-0.07433556,-0.56136143,0.27736646
7465960000000,0.117892265,-0.3891263,-0.5385814,-0.08903361,-0.039858956,0.018020526,0.7757865,-0.07610913,-0.5622829,0.27604455
7465980000000,0.23967266,-0.28902912,-0.44125605,0.20005837,-0.03145956,0.06047566,0.77551126,-0.07561621,-0.562347,0.27682173
7466000000000,0.19358921,0.32520962,-0.56738544,0.20723604,-0.0053450707,0.057726767,0.7754317,-0.07384507,-0.5616642,0.2789011
7466020000000,0.17935467,0.70013285,-0.61294866,0.00076358154,0.018936822,0.038179077,0.7755067,-0.073360704,-0.56123394,0.27968553
7466040000000,0.27134418,0.38005924,-0.43822408,-0.16310102,0.019394971,0.06261369,0.7754387,-0.07453179,-0.56134874,0.2793341
7466060000000,0.27222347,0.013619423,-0.2855823,-0.122478485,0.018325957,0.052381694,0.77526855,-0.07666548,-0.56167424,0.2785735
7466080000000,0.08295584,0.035080433,-0.014297724,0.05177083,-0.0009162979,0.060322944,0.77518225,-0.07720237,-0.5616531,0.2787079
7466100000000,0.04763031,0.3285818,-0.13971114,0.15057829,-0.013591751,0.09987647,0.77567303,-0.077965334,-0.5611032,0.2782375
7466120000000,0.0024991035,0.6743276,-0.67481136,0.322995,0.058337633,0.1788308,0.77549905,-0.07714813,-0.56038046,0.2803981
7466140000000,-0.035838604,0.24501705,-0.66849613,0.5670357,0.10522154,0.1779145,0.77582604,-0.07488636,-0.5580291,0.28476253
7466160000000,0.2012825,-0.29387188,-0.66210866,0.3831652,0.043829583,0.13454308,0.7762269,-0.0716295,-0.55588883,0.2886669
7466180000000,0.47919083,0.0031642914,0.08215451,0.023365596,0.07315111,0.12308934,0.7761938,-0.071112305,-0.5548011,0.29096708
7466200000000,0.0007472038,-0.39120102,0.87397623,-0.129198,0.011911872,0.030085113,0.7763285,-0.072767474,-0.5546625,0.29046243
7466220000000,-0.47396135,-0.6532469,1.4182985,0.3036,-0.12797627,0.08964448,0.7761384,-0.073392436,-0.55448014,0.29116088
7466240000000,-0.47381592,-0.69449043,1.0705307,0.8938486,-0.23090707,0.069485925,0.7756829,-0.06911703,-0.5528259,0.29651684
7466260000000,-0.4975896,-0.12193632,0.35863805,1.0134255,-0.29077184,0.1207986,0.77478343,-0.060518727,-0.5515339,0.30308193
7466280000000,-0.5590606,-0.12276459,0.3886354,0.6898196,-0.355829,0.17944166,0.7729991,-0.053502098,-0.5511886,0.30951765
7466300000000,-0.7485552,-1.1587472,1.2041342,0.47907108,-0.41874814,0.21487185,0.77069616,-0.05038031,-0.55185914,0.3145483
7466320000000,-1.4499106,-2.2174687,1.6704326,0.7476991,-0.49861875,0.2863431,0.76767373,-0.046286292,-0.5534366,0.3197538
7466340000000,-2.0661225,-1.983841,1.1990967,1.1554517,-0.68707067,0.45646906,0.76455003,-0.04873647,-0.5485559,0.33492458
7466360000000,-2.711131,-0.399292,-0.07134414,1.559539,-0.8248208,0.6377433,0.75881684,-0.038653463,-0.5495886,0.3473549
7466380000000,-4.2185035,1.0466919,-0.9384582,1.5351044,-0.8921687,0.92255926,0.75205815,-0.02715243,-0.54986334,0.3623831
7466400000000,-4.6218114,1.6945989,-1.7065816,1.0955868,-1.1753048,1.5236506,0.7423281,-0.020126797,-0.552012,0.37924492
7466420000000,-3.229208,0.9464731,-2.1384194,0.7464773,-1.6120734,1.7369953,0.72784245,-0.018378027,-0.5587553,0.3971149
7466440000000,-1.8401113,0.47154665,-1.4111576,0.82940227,-1.7707456,1.9034561,0.71060926,-0.016239475,-0.5686287,0.41404366
7466460000000,-1.6283278,0.4607873,0.29031062,1.3093897,-1.7638733,2.3640485,0.6917458,-0.01357331,-0.57610685,0.4352063
7466480000000,-1.8048267,-0.7134867,0.65859914,1.7809776,-1.9248364,2.4912612,0.6699323,-0.010420824,-0.58060926,0.46257436
7466500000000,-1.5122695,-1.4134789,-3.0089462,2.5117252,-1.8099937,2.4436138,0.64629847,-0.0022479086,-0.58419895,0.49092242
7466520000000,-0.5692735,-0.7649064,-4.1645117,3.0288227,-1.5234979,2.7983737,0.6197211,0.007983231,-0.5856099,0.52243954
7466540000000,0.71820307,0.5224652,-4.0105557,2.6508498,-1.1157454,2.983466,0.5884172,0.020176975,-0.5944377,0.54772437
7466560000000,1.3061795,1.1008992,-5.851877,1.8093829,-0.5519168,2.850908,0.56329346,0.02351869,-0.596827,0.57091576
7466580000000,1.3162236,1.7620668,-4.1822753,0.6545421,-0.17180584,2.8226557,0.5445376,0.016521318,-0.59399915,0.5919215
7466600000000,1.3346839,2.19739,-0.34612894,-1.0300715,-0.045356743,2.5784621,0.52865064,0.001324683,-0.59515494,0.6052416
7466620000000,0.95098305,0.35967827,-0.70094824,-2.1305454,0.010995574,2.312125,0.51412016,-0.023157962,-0.6074209,0.6051313
7466640000000,0.6760359,-1.9678588,-0.670115,-1.1705705,-0.10522154,2.3248005,0.49961597,-0.047173418,-0.6188676,0.604286
7466660000000,0.8810048,-3.0318584,1.2240615,0.52198434,-0.24007004,2.3134995,0.4840759,-0.061471246,-0.6197989,0.61460644
7466680000000,1.3371048,-1.6793375,0.90513897,1.4059063,-0.1133155,2.2847888,0.46930522,-0.068363614,-0.61139154,0.63346624
7466700000000,1.6432276,-0.16222954,-0.1852088,1.1901182,-0.03924809,2.0407481,0.45595238,-0.07435146,-0.60052735,0.6526456
7466720000000,1.3260398,-0.46003246,-0.28221607,0.69043046,0.0038179078,1.7843374,0.44430172,-0.08157545,-0.5933253,0.6662631
7466740000000,0.7631295,-1.616415,1.0326896,0.9117164,-0.22937989,1.6113098,0.4333253,-0.0882565,-0.587971,0.6772963
7466760000000,0.61227155,-2.3800106,1.4308591,1.7319556,-0.27000242,1.3929255,0.42215744,-0.089014545,-0.5787299,0.69204855
7466780000000,0.58673763,-1.93645,0.34888792,1.545031,-0.13362677,1.0381655,0.4144541,-0.08672799,-0.5653647,0.70786214
7466800000000,0.6576369,-0.5412388,0.6519761,0.88346386,-0.22617286,0.9660834,0.40795225,-0.08593421,-0.55648875,0.7186867
7466820000000,0.75653434,-0.7457199,0.7047622,0.23243423,-0.31108314,0.7654142,0.40036395,-0.086975716,-0.5533721,0.7252058
7466840000000,0.4140947,-1.30861,0.83622503,-0.025198191,-0.3903429,0.57635134,0.39379078,-0.087770574,-0.5542872,0.7280048
7466860000000,0.8596368,-1.0754251,0.82654214,0.1815797,-0.40424007,0.46807548,0.38778815,-0.08777018,-0.55557126,0.7302447
7466880000000,1.0847869,-1.35678,-0.08987975,0.5510005,-0.39813143,0.3801109,0.38299462,-0.085442334,-0.55393213,0.73428476
7466900000000,1.3608873,-0.5062046,-0.036822796,1.0567969,-0.39003745,0.34773505,0.37873444,-0.08149523,-0.5490615,0.7405743
7466920000000,0.88363266,-0.5890589,0.18725348,1.0699304,-0.37614027,0.22159137,0.37561592,-0.075651586,-0.54137397,0.74840087
7466940000000,0.67904115,-0.44670105,0.79523325,0.74067414,-0.4129449,0.2237294,0.37263307,-0.0704146,-0.53585166,0.75435364
7466960000000,1.2973018,-0.55279636,0.7634134,0.36392298,-0.43554693,0.12797627,0.36937112,-0.066413276,-0.5331727,0.7582091
7466980000000,1.7085788,-0.5589256,0.20761967,0.67011917,-0.42638394,0.10827587,0.3665387,-0.062222283,-0.53257203,0.7603584
7467000000000,1.7148817,-1.6326284,-0.18459654,1.4358387,-0.27152961,-0.118966006,0.36492926,-0.055677906,-0.52531844,0.76665974
7467020000000,1.1519244,-1.1561003,-0.15568352,1.7366899,-0.10567969,-0.21303925,0.36677745,-0.046695907,-0.512874,0.7747607
7467040000000,1.0630536,-0.04840088,0.087138176,1.5636623,-0.033292156,-0.2312125,0.3689444,-0.039052837,-0.49974194,0.782696
7467060000000,1.0360937,0.24388742,-0.026948929,1.350623,-0.03573562,-0.32834008,0.3718632,-0.03162563,-0.4888083,0.7885329
7467080000000,1.1105678,-0.029226303,-0.32375288,1.3886495,0.003970624,-0.3662137,0.37516043,-0.024510138,-0.4787857,0.7933588
7467100000000,1.0096257,-0.030697823,-0.45653057,1.5693128,0.0571159,-0.37720928,0.3788551,-0.016932882,-0.46723032,0.79867256
7467120000000,0.5013242,0.26641512,-0.24721289,1.6934712,0.039553523,-0.38423425,0.3824054,-0.009414672,-0.45376888,0.8048424
7467140000000,0.0062339306,0.3373289,-0.07635164,1.753336,0.030848695,-0.36193767,0.38573307,-0.0012478128,-0.43976298,0.8110592
7467160000000,-0.25033307,0.34434175,0.010577202,1.9104811,0.04260785,-0.30787608,0.38852772,0.0069259484,-0.4247972,0.8176465
7467180000000,-0.34449768,0.56663275,-0.29326057,2.059685,0.110872045,-0.22434026,0.3908266,0.015317159,-0.40808156,0.82491773
7467200000000,-0.4873457,1.1925325,-0.6900854,2.0344868,0.15882497,-0.09666943,0.39231476,0.022894235,-0.39009932,0.83269894
7467220000000,-0.69198084,1.4287305,-0.70285654,1.7736472,0.12705997,-0.027794369,0.39272535,0.029337484,-0.37333265,0.8399577
