timestamp,accel_x,accel_y,accel_z,gyro_x,gyro_y,gyro_z,rot_w,rot_x,rot_y,rot_z
244341440000000,0.42105746,1.4000921,0.32615328,0.20708331,-0.18234327,0.019394971,0.17379329,-0.45664603,0.7193627,-0.4937487
244341460000000,0.6940342,0.10769749,-1.0348115,0.082924955,-0.24251351,-0.06352998,0.17583217,-0.45814985,0.7181328,-0.49342388
244341480000000,0.05420196,0.15592861,-0.78706646,-0.22357668,-0.12339478,-0.056352317,0.17506692,-0.45969498,0.71888727,-0.49115515
244341500000000,-0.16038966,0.38667583,-0.35627604,-0.33643404,-0.21930063,0.05421429,0.175323,-0.46091864,0.72054076,-0.48748025
244341520000000,-0.10334182,0.3403349,-0.14562416,-0.39446622,-0.20845777,0.096516706,0.17557405,-0.46193773,0.7225693,-0.4834057
244341540000000,-0.4436127,0.32077885,0.32868433,-0.39690968,-0.14996742,0.09819659,0.17519431,-0.46261522,0.72471255,-0.4796727
244341560000000,-0.46016645,0.57948875,0.41217566,-0.31902438,-0.20204368,0.13240504,0.17581591,-0.46318036,0.7264706,-0.4762282
244341580000000,-0.11254656,0.6113467,0.10531664,-0.37614027,-0.23732115,0.1965459,0.17686655,-0.4634871,0.728694,-0.47212598
244341600000000,-0.24477577,-0.10027981,0.20822906,-0.4457789,-0.19624045,0.21884248,0.17725515,-0.4635847,0.73153496,-0.46746823
244341620000000,-0.40243065,-0.24891663,0.21232891,-0.3463606,-0.22770002,0.22739458,0.17832261,-0.46356875,0.73379713,-0.46351582
244341640000000,-0.33144057,0.2249918,0.08525038,-0.27305678,-0.26465738,0.23487769,0.18025069,-0.46352297,0.73559207,-0.45995697
244341660000000,-0.35660672,0.62912846,0.08373833,-0.38362336,-0.2826779,0.25503623,0.18168083,-0.4636176,0.73801917,-0.45538843
244341680000000,-0.11647022,0.51181984,0.031179905,-0.5299256,-0.3462079,0.27214047,0.18300658,-0.46417648,0.7411114,-0.44922474
244341700000000,-0.10410261,0.25165272,0.09458208,-0.52732944,-0.3565926,0.26007587,0.18431257,-0.46484724,0.7440477,-0.44310158
244341720000000,-0.3536806,0.1413765,0.062167168,-0.4474588,-0.3744604,0.25518894,0.18619466,-0.46539363,0.74647206,-0.43762976
244341740000000,-0.30767262,-0.03949833,0.03102398,-0.43982297,-0.43554693,0.2454151,0.1885222,-0.46625793,0.7486962,-0.43187615
244341760000000,-0.23893702,-0.29417515,-0.29872465,-0.3680463,-0.4552473,0.19608775,0.1910679,-0.46750283,0.7503387,-0.42652807
244341780000000,-0.41032946,-0.46761227,-0.5820794,-0.12889257,-0.41050145,0.17577648,0.1942846,-0.46821582,0.7508583,-0.42336667
244341800000000,-0.5241926,-0.6329613,-0.22633934,0.16630806,-0.35811976,0.17715092,0.19859515,-0.4679718,0.750208,-0.42278877
244341820000000,-0.6528454,-0.85672855,0.31125212,0.42241332,-0.33017266,0.16814066,0.20381095,-0.4672148,0.74845195,-0.42425373
244341840000000,-0.60181814,-0.046585083,0.5675974,0.68829244,-0.34437528,0.19792034,0.21080972,-0.4655405,0.7456089,-0.42766652
244341860000000,-0.8342326,0.3386078,0.8018403,0.75228053,-0.3324634,0.2510656,0.22539473,-0.46154708,0.73921174,-0.43558875
244341880000000,-1.0024693,0.08313465,0.6665907,0.6273586,-0.32360587,0.28817567,0.23230734,-0.45917565,0.7371469,-0.43795615
244341900000000,-1.1794603,0.09342575,0.61177015,0.5204572,-0.311694,0.34300083,0.2417777,-0.45492733,0.736113,-0.43900147
244341920000000,-1.1913285,-0.21086693,0.028908253,0.42455134,-0.3211624,0.39538252,0.24953087,-0.45132694,0.73580825,-0.43889034
244341940000000,-1.2367167,-0.5646782,-0.23209095,0.33078352,-0.30909783,0.36086863,0.25485656,-0.44922048,0.7352592,-0.43891132
244341960000000,-1.26113,-0.7999382,0.5382085,0.37980548,-0.30268374,0.3475823,0.26128876,-0.44642076,0.73442614,-0.4393804
244341980000000,-1.1880552,-1.0588417,0.7541008,0.7699956,-0.3268129,0.29184088,0.26881814,-0.44343904,0.7313244,-0.44301617
244342000000000,-0.8821267,-0.42879772,0.7241819,1.1646146,-0.38591412,0.2939789,0.2855856,-0.43511647,0.7251951,-0.45078462
244342020000000,-0.58612317,0.19806671,0.05629754,1.1856894,-0.41599923,0.21456642,0.29488528,-0.4320508,0.7193831,-0.45701507
244342040000000,-0.4909685,-1.0413208,0.31953645,1.1629347,-0.38927388,0.15515977,0.30317143,-0.42931587,0.7136999,-0.4630417
244342060000000,0.0,0.0,0.0,1.7592919,-0.40225476,0.13026701,1.0,0.0,0.0,0.0
244342080000000,0.33253,-1.1224356,-0.018867016,0.0,0.0,0.0,0.3270973,-0.41863635,0.69281346,-0.48760694
244342100000000,0.7102559,-0.8490639,-0.6082127,1.8481728,-0.29458976,-0.038026363,0.33656138,-0.4142187,0.6824754,-0.49937633
244342120000000,1.1032717,-1.2568264,-0.15000916,1.5488489,-0.24556783,-0.08170322,0.3437902,-0.41100878,0.673829,-0.50875795
244342140000000,1.7003142,-0.88828087,-0.7513559,1.7896825,-0.12965615,-0.03191771,0.35175592,-0.40586907,0.6640187,-0.52020895
244342160000000,1.3797727,-1.843812,-1.2951583,2.4208589,0.20861048,-0.05009095,0.35967347,-0.39630827,0.6519104,-0.5372034
244342180000000,0.3676167,-1.9546604,1.7137363,3.871053,0.41722095,0.11255192,0.37244797,-0.37904227,0.6324329,-0.5635939
244342200000000,0.1872898,0.35502148,0.81787324,5.5014524,0.38041633,0.32436943,0.3931256,-0.35268366,0.60188806,-0.5989969
244342220000000,-0.51956266,4.616472,0.5172173,4.422664,0.42348233,0.17486018,0.40718636,-0.33074424,0.5766071,-0.626364
244342240000000,-0.8173048,1.9687405,0.7614683,2.3588562,0.22770002,-0.051618114,0.41262737,-0.32066736,0.56349665,-0.63983023
244342260000000,-0.57961,-2.612092,4.501867,1.9168952,-0.13622294,-0.25152376,0.4171117,-0.3161852,0.5509351,-0.65001184
244342280000000,-0.41704303,-3.5000591,4.0175467,3.8767035,-0.48151454,-0.11484267,0.43159807,-0.30304605,0.5219915,-0.67038137
244342300000000,-0.7165389,1.1045108,1.5226223,4.9275446,-0.698219,-0.15302174,0.45692313,-0.27513438,0.47517622,-0.699807
244342320000000,-1.1957631,2.914321,-0.087611675,3.8198931,-0.8926268,-0.15302174,0.47035596,-0.2644841,0.4433972,-0.71569014
244342340000000,-1.338665,1.9290981,0.12294054,2.225993,-0.9973902,-0.05665775,0.4797608,-0.26201868,0.4235333,-0.7223541
244342360000000,-1.320912,1.5034447,0.56466866,1.6250542,-0.9804387,0.19043724,0.48952016,-0.2605984,0.40828103,-0.7250966
244342380000000,-1.6143641,1.7830362,0.18995047,1.4512631,-0.9027061,0.34101552,0.49947262,-0.25841966,0.39433074,-0.72680783
244342400000000,-1.9121183,1.8698645,-0.16406679,1.1360567,-0.8727737,0.49098295,0.5094048,-0.25703996,0.3831078,-0.726406
244342420000000,-1.6332061,1.6963964,-0.591424,0.8524625,-0.80756384,0.63591075,0.51930153,-0.25613326,0.37472063,-0.72408986
244342440000000,-1.2161772,1.5328422,-1.3020926,0.8223773,-0.6386596,0.7742717,0.5293289,-0.25355387,0.3676207,-0.72137123
244342460000000,-0.738564,1.2401547,-2.2330093,0.88163126,-0.3764457,0.90209526,0.5394455,-0.24809593,0.36171958,-0.718753
244342480000000,-0.31889662,0.8515711,-3.339779,0.91339624,-0.042455133,0.9503536,0.54861933,-0.23988645,0.35743088,-0.7167388
244342500000000,0.19294447,0.24034643,-4.318883,0.8213083,0.3484986,0.9492846,0.55596286,-0.22937423,0.3560075,-0.7152283
244342520000000,0.8903221,-0.9910526,-4.3503237,0.712727,0.6035349,0.94134337,0.56187403,-0.21778755,0.35682917,-0.7138201
244342540000000,1.5214666,-2.423152,-3.757365,0.8907942,0.7602218,0.9804387,0.564009,-0.21169893,0.3627645,-0.71097064
244342560000000,2.8706055,-3.269987,-3.606772,1.3055718,1.1362094,1.0650436,0.5700474,-0.19234437,0.3620241,-0.7120311
244342580000000,4.773261,-3.520877,-2.8824255,1.2625058,1.5039502,1.0279335,0.5741265,-0.17037989,0.36345464,-0.71361774
244342600000000,5.3694844,-4.1149426,-1.199305,0.75961095,1.509448,0.79641557,0.5751834,-0.1526668,0.36838698,-0.7142464
244342620000000,5.086109,-6.362401,0.6787472,0.7463246,1.2087497,0.5016731,0.57516575,-0.13864757,0.37093902,-0.7157971
244342640000000,5.776082,-6.963758,1.770515,1.2722796,1.132086,0.14004086,0.5735476,-0.12308196,0.36816296,-0.721353
244342660000000,5.884801,-5.6575365,2.1660533,1.7069103,1.0036516,-0.30695978,0.56937295,-0.10719095,0.360804,-0.73085225
244342680000000,5.3748007,-4.2143497,1.9708929,1.8842138,0.729984,-0.73853606,0.5630063,-0.09417826,0.34998518,-0.7427414
244342700000000,4.872056,-3.137723,1.6368966,2.068848,0.5357288,-1.0317514,0.55505383,-0.08255245,0.33632365,-0.75629807
244342720000000,4.368771,-2.8303742,0.974216,2.1203132,0.39293906,-1.237613,0.54583776,-0.072184,0.32108474,-0.77055514
244342740000000,3.5554628,-2.2867413,0.4607525,1.9825631,0.29932398,-1.3779593,0.5353624,-0.06382178,0.30632168,-0.78452593
244342760000000,2.9343343,-1.5014734,0.5200577,1.9179641,0.22602014,-1.3240504,0.52530354,-0.05613788,0.2916583,-0.7973958
244342780000000,2.9936285,-0.8019476,0.72945213,2.041359,0.20295998,-1.2307408,0.51595485,-0.047753505,0.275537,-0.80968493
244342800000000,2.637763,-0.3780203,0.82494736,2.193617,0.21655174,-1.1710287,0.5067176,-0.03839611,0.25788742,-0.82174027
244342820000000,1.4639986,-0.36615086,0.3717451,2.235614,0.2003638,-1.052979,0.49760365,-0.032097198,0.23836255,-0.8333928
244342840000000,0.5186341,-0.13418245,-0.17525959,2.1864395,0.21639901,-0.808022,0.49101117,-0.021361332,0.2210105,-0.8423813
244342860000000,0.3925978,0.3914578,-0.41269016,2.036472,0.2564107,-0.47112983,0.48701498,-0.0102537945,0.20504496,-0.84892154
244342880000000,0.37820637,0.71785283,-0.59498024,1.8521434,0.26313022,-0.16676621,0.48535508,0.00058763684,0.19071232,-0.8532638
244342900000000,-0.13070858,0.18620896,-0.5768862,1.7684549,0.25686884,0.06291912,0.48553786,0.011478694,0.17698091,-0.8560368
244342920000000,-0.99194276,-0.33199143,-0.9325495,1.627345,0.22495113,0.12980886,0.48607278,0.022126934,0.16502923,-0.85790974
244342940000000,-1.6324391,-0.3577845,-1.6560154,1.3778065,0.24358252,0.25259277,0.48748577,0.031391468,0.15454133,-0.8587719
244342960000000,-1.8759091,-0.5389168,-2.4573236,0.84528476,0.26328292,0.311694,0.48961633,0.038299132,0.14873578,-0.8583047
244342980000000,-1.8865373,-0.41253233,-3.0585327,0.14172074,0.3016147,0.2649628,0.49134323,0.04180475,0.14952286,-0.8570164
244343000000000,-1.9103856,-0.9846027,-3.1448307,-0.107359566,0.30192015,0.29733866,0.49348027,0.044117786,0.15254124,-0.85513866
244343020000000,-2.0472,-1.6663485,-2.7294855,0.42164972,0.39370266,0.38041633,0.4959423,0.05013987,0.15089616,-0.85367304
244343040000000,-2.6055553,-1.0343593,-2.3257723,1.0181596,0.559858,0.46822822,0.49846914,0.0617531,0.14514108,-0.85243726
244343060000000,-3.0066974,-0.42868638,-2.4925709,0.8347474,0.61941737,0.45570546,0.5009009,0.07292826,0.14123145,-0.85078406
244343080000000,-2.8130696,-0.6240498,-1.9569435,0.267559,0.4999932,0.3791946,0.50142294,0.10010657,0.16352202,-0.8436908
244343100000000,-2.4921541,-0.4685458,-1.3494105,0.07162395,0.4859433,0.38041633,0.5027487,0.11627563,0.17602041,-0.8382962
244343120000000,-2.443951,-0.2647015,-0.68069744,-0.051923547,0.4175264,0.3943135,0.50533634,0.12079096,0.17855352,-0.83556175
244343140000000,-1.6562054,-0.40277374,0.054985046,-0.15668693,0.3352123,0.37568212,0.50808877,0.123366475,0.18124108,-0.8329335
244343160000000,-1.2510607,-0.1677239,0.3789444,-0.1769982,0.29565877,0.34284812,0.51058805,0.12551159,0.18378752,-0.83052325
244343180000000,-1.2571692,0.43344748,0.2689047,0.0,0.0,0.0,0.5135544,0.12665226,0.18705897,-0.8277862
244343200000000,-0.81091905,0.63804567,0.31350613,0.0,0.0,0.0,0.51744026,0.12598622,0.19190821,-0.8243508
244343220000000,0.061015606,0.52645695,0.49163055,-0.600786,0.19807306,0.44837508,0.52156556,0.12525883,0.19739866,-0.8205568
244343240000000,0.2712617,0.4170431,0.49299335,-0.48334712,0.26068676,0.42470407,0.5251034,0.12575988,0.20215745,-0.8170577
244343260000000,-0.103498936,0.3684733,0.9075327,-0.33750305,0.24602598,0.40561453,0.52827585,0.12691635,0.20565194,-0.81395596
244343280000000,-0.10372734,0.2538755,1.0700951,-0.18860464,0.1731803,0.40515637,0.5314541,0.12818961,0.20747451,-0.81122035
244343300000000,0.18886614,0.18415451,0.82321453,-0.09773844,0.098807454,0.37843102,0.5344255,0.12927012,0.2081681,-0.8089158
244343320000000,0.29341078,-0.21574533,0.62166023,-0.0852157,0.045814894,0.31505376,0.5369761,0.12979017,0.20863517,-0.8070208
244343340000000,0.48393035,-0.2635187,0.5239086,-0.07467828,0.061850104,0.2554944,0.5389402,0.13038951,0.20921706,-0.8054628
244343360000000,0.74155045,0.090901256,0.50564575,-0.14401148,0.06078109,0.24404067,0.54093957,0.1304921,0.21025276,-0.80383456
244343380000000,1.0440848,-0.072090626,0.49736404,-0.21945333,-0.011759156,0.24648413,0.543362,0.12644446,0.20960596,-0.803016
244343400000000,1.0147054,-0.4421711,0.2678051,-0.10369437,-0.07269296,0.24923302,0.5449737,0.1184159,0.2080625,-0.8035493
244343420000000,0.7871647,-0.20897698,0.142169,0.09330966,-0.061239243,0.25793785,0.54701513,0.11893023,0.20648305,-0.802493
244343440000000,0.751384,0.1373682,0.21220589,0.068264194,-0.06047566,0.25167647,0.5490767,0.119396456,0.20509885,-0.8013699
244343460000000,0.680496,-0.1140635,0.41219902,-0.1375974,-0.1151481,0.21838433,0.55121666,0.11798313,0.20536835,-0.8000401
244343480000000,0.7079835,-0.27708077,0.45431995,-0.20005837,-0.12736541,0.22052236,0.5534881,0.116073325,0.20608343,-0.798566
244343500000000,0.7016642,0.034354925,0.36490536,-0.19593503,-0.11362094,0.22067507,0.5557176,0.114462,0.20663121,-0.7971073
244343520000000,0.82093596,0.16472888,0.37918472,-0.23273966,-0.1207986,0.1994475,0.5578582,0.112269856,0.20724083,-0.7957643
244343540000000,0.91210437,0.17130852,0.20776367,-0.21899518,-0.109650314,0.18020524,0.55976564,0.11036372,0.20804083,-0.79448175
244343560000000,0.87866116,0.302307,-0.1109457,-0.19593503,-0.07895433,0.16218472,0.5614101,0.109005705,0.20891564,-0.79327846
244343580000000,0.7907133,0.5411866,-0.060674667,-0.29535335,-0.0056505036,0.16630806,0.56304616,0.10769333,0.21100274,-0.79174423
244343600000000,0.40315866,0.22358704,1.0921688,-0.5329799,0.007941248,0.16523905,0.5648874,0.10510163,0.21519862,-0.78964907
244343620000000,-0.36836576,-0.4708662,1.7298145,-0.59406644,-0.12751812,0.1328632,0.5668155,0.10088373,0.21930116,-0.7876862
244343640000000,-0.6946161,-1.8678074,0.2949505,-0.04917465,-0.26297748,0.1253801,0.56847167,0.09868958,0.21802443,-0.78712505
244343660000000,-1.9942856,-2.4633396,-1.6596317,0.6786713,-0.32085696,-0.008246681,0.5677882,0.10061138,0.2130841,-0.78872633
244343680000000,-4.301737,-1.6072338,-1.0754299,0.8216137,-0.38637227,-0.30207285,0.5651155,0.101964466,0.20442005,-0.7927548
244343700000000,-5.952945,-1.8790326,-1.5490084,0.24816401,-0.70707655,-0.82726425,0.55964464,0.096152194,0.199333,-0.79863566
244343720000000,-7.1636133,-2.7668598,-2.6194115,-0.46043968,-0.9166033,-1.2483032,0.55160034,0.08321395,0.19971113,-0.8055607
244343740000000,-7.4432316,-3.116474,-3.071004,-1.0259482,-0.90087354,-1.700038,0.5402865,0.066726185,0.20488764,-0.81342447
244343760000000,-6.9282503,-1.098053,-1.9397631,-1.3069462,-0.8498663,-1.9529362,0.52655166,0.048653927,0.2128162,-0.8216358
244343780000000,-5.664031,1.0954263,-1.934834,-1.1597277,-0.8660542,-1.9150625,0.513062,0.031574316,0.21874486,-0.8294102
244343800000000,-4.131462,2.923477,-2.25463,-1.0274754,-0.8330675,-1.6957619,0.5032121,0.025540201,0.22446163,-0.83411163
244343820000000,-3.4484723,3.9149268,-2.478724,-1.1439979,-0.73975784,-1.3758212,0.49384376,0.01097538,0.23046696,-0.8383811
244343840000000,-3.5462866,3.6386957,-1.5301418,-1.6016886,-0.70448035,-1.0893254,0.48731953,-0.0028608472,0.24034674,-0.83949083
244343860000000,-3.0669491,2.9304028,-0.3344307,-2.2369885,-0.66843927,-0.79702646,0.48978192,0.0025187642,0.2520258,-0.8346198
244343880000000,-2.131016,2.6138306,0.24794483,-3.14336,-0.50823987,-0.4970916,0.49321017,-0.0025126126,0.27014115,-0.8268986
244343900000000,-1.1415839,1.4553618,0.21339893,-4.138459,-0.5696318,-0.20357084,0.4998979,-0.011653781,0.29525733,-0.8141188
244343920000000,-0.7672224,-0.45288754,1.6004443,-4.737413,-0.8173377,0.09773844,0.50213,-0.04204843,0.3300269,-0.7982354
244343940000000,-0.2806375,-3.3911448,2.1840506,-4.5318565,-1.0134255,0.3746131,0.5063537,-0.071752355,0.36081675,-0.779916
244343960000000,1.0147127,-4.967251,1.9083776,-4.1464005,-0.9579894,0.3578143,0.50925815,-0.098797545,0.38795134,-0.7618328
244343980000000,2.8754876,-4.7863536,1.5541849,-3.7618608,-0.84635377,0.4259258,0.5115263,-0.122491464,0.41235292,-0.7438426
244344000000000,4.104933,-4.0236917,0.6821728,-2.9573514,-0.81031275,0.623388,0.515662,-0.14084588,0.43053246,-0.727253
244344020000000,5.3858795,-2.23564,1.1870847,-2.09145,-0.7846564,0.87766063,0.5225146,-0.15309668,0.44212037,-0.7127899
244344040000000,6.2187653,0.38755322,2.3965492,-1.6778941,-0.8266534,1.1108584,0.53157085,-0.1625134,0.4509248,-0.6983471
244344060000000,6.1181703,-0.2066698,2.6212254,-1.5117388,-1.1189524,1.1426234,0.5422333,-0.173077,0.45695767,-0.6835328
244344080000000,6.174494,0.12386894,2.0661826,-1.3519975,-1.2515101,1.1097895,0.5530328,-0.18437357,0.46091893,-0.66911495
244344100000000,6.595565,-0.1026659,0.62814665,-0.86544335,-1.1656836,1.119716,0.5643503,-0.19188726,0.46168151,-0.65691566
244344120000000,6.0761023,-0.36849976,0.42538166,-0.75747293,-0.9793697,0.9399689,0.573161,-0.19891235,0.46239027,-0.64661866
244344140000000,5.522766,-1.5898275,0.25018072,-0.31581733,-0.9784534,0.7102836,0.5815089,-0.20393299,0.4600315,-0.6392416
244344160000000,5.166855,-1.7472115,-0.3218503,0.16722436,-0.7820602,0.551764,0.58881587,-0.20520404,0.4551112,-0.6356579
244344180000000,4.883451,-1.2861071,-2.173611,0.025809057,-0.6571383,0.399964,0.58935213,-0.21916607,0.4501132,-0.6340572
244344200000000,4.5649385,-0.8263731,-3.7492397,-0.3315471,-0.47998735,0.32253686,0.5903128,-0.22739974,0.45071915,-0.62981945
244344220000000,4.1721973,0.6714425,-3.2754884,-0.44791695,-0.2742785,0.65668017,0.59449536,-0.22898147,0.4536856,-0.62314695
244344240000000,3.081624,1.5722256,-2.5880718,-0.49296826,-0.07880162,0.84696466,0.5990362,-0.22839808,0.45829123,-0.6155965
244344260000000,2.0543637,2.1661873,-3.1317518,-0.97341377,0.12522738,1.0042624,0.60225576,-0.22887717,0.46747887,-0.6052824
244344280000000,2.1055322,1.4952278,-3.3546984,-1.642922,0.11407909,1.1733195,0.6047555,-0.2327316,0.48116082,-0.590416
244344300000000,2.1481655,-0.6234236,-1.7616494,-1.8255708,-0.124005646,1.2576188,0.6013527,-0.23594154,0.4972938,-0.579142
244344320000000,2.0411973,-2.3033876,-0.6683512,-1.8532125,-0.28771752,1.3559681,0.60625666,-0.2419142,0.50907844,-0.5610433
244344340000000,2.1677198,-3.0300102,-1.480605,-1.8344283,-0.4071417,1.361924,0.60087466,-0.23806754,0.52537733,-0.55340064
244344360000000,2.6417222,-1.6878977,-2.400117,-1.5647314,-0.4352415,1.3590225,0.6053453,-0.24496442,0.53494185,-0.5360846
244344380000000,2.6506567,2.1735735,-2.9796505,-1.4676038,-0.43875396,1.5520558,0.6022035,-0.23680708,0.54882383,-0.5292124
244344400000000,2.1734421,1.7155762,-4.880061,-2.3101397,-0.44073927,1.3949108,0.60611457,-0.24469602,0.56216675,-0.5066731
244344420000000,3.665071,-2.7998981,-4.4225864,-2.818685,-0.98639464,1.1510228,0.6010539,-0.2503189,0.5784338,-0.49141526
244344440000000,5.8371377,-4.323309,-4.550234,-2.213623,-1.1902709,0.767094,0.605798,-0.2655065,0.5835486,-0.471154
244344460000000,7.71262,-2.844164,-5.534758,-1.4057536,-1.1355985,0.3998113,0.6016867,-0.26508516,0.58960885,-0.46911034
244344480000000,8.340562,-2.2421255,-6.069998,-0.7640397,-0.7848091,-0.1966986,0.60313976,-0.27470008,0.58764184,-0.46415442
244344500000000,6.75758,-1.8317909,-7.990477,-0.61315596,-0.6545421,-0.9459248,0.59148717,-0.27547765,0.58940583,-0.47629374
244344520000000,7.8001795,-0.8656006,-5.7149878,-0.7330383,-0.5018258,-0.81000733,0.5885766,-0.28711998,0.5877832,-0.47502708
244344540000000,7.9459906,-1.0451384,-2.9532404,-0.89919364,-0.3491095,-1.3377949,0.5729557,-0.2919454,0.59151286,-0.48641783
244344560000000,8.996887,-0.49027443,-1.2414709,-0.68600166,-0.2312125,-1.6604844,0.5639872,-0.3069757,0.58857596,-0.49118507
244344580000000,8.547241,-0.5056219,-3.1530206,-1.0183123,0.020616703,-2.2342396,0.54174435,-0.31598908,0.5917567,-0.5064464
244344600000000,8.43254,-4.815382,-1.7597985,-1.2415836,0.2958115,-2.6896396,0.5211634,-0.33849192,0.5913437,-0.5139305
244344620000000,11.281162,-3.0925856,-6.9995966,0.0580322,0.90316427,-2.5757134,0.49629062,-0.34057558,0.59080005,-0.5372702
244344640000000,1.1719841,-9.202843,-7.3948298,0.08124508,1.8874209,-3.6960402,0.4633707,-0.34997725,0.58802426,-0.5630551
244344660000000,6.4850745,-7.7220964,-4.7054434,3.794695,1.8887954,-2.4454463,0.44685817,-0.33148065,0.5683341,-0.6061639
244344680000000,2.5486336,-8.061369,-5.894809,5.1786103,2.2511911,-3.2042937,0.4315764,-0.30914843,0.5343659,-0.65774024
244344700000000,-0.17274746,-7.7248163,-3.728876,6.230062,2.10046,-3.4799466,0.4147124,-0.28756657,0.49008214,-0.7107311
244344720000000,-1.1097434,-3.7794733,-3.8719554,7.433008,1.9888245,-3.4150422,0.4012726,-0.25758055,0.43311462,-0.7648819
244344740000000,-2.7438576,0.3343959,-3.777592,7.0205216,1.7316502,-3.1597004,0.38650772,-0.22909354,0.37664124,-0.8101045
244344760000000,-2.9646144,3.543404,-3.3746433,5.5666623,1.6001616,-2.385887,0.3736324,-0.20333877,0.33219486,-0.8418426
244344780000000,-3.6545458,3.947002,-1.3373752,3.712839,1.5792394,-1.7847955,0.36094993,-0.1818649,0.3042018,-0.8626132
244344800000000,-5.9147115,-1.2989769,1.0730019,2.307238,1.0514518,-1.7899879,0.3464483,-0.17023246,0.286198,-0.87697506
244344820000000,-5.8902245,-2.2536345,1.3736463,2.3261747,0.9246973,-1.4382823,0.33484343,-0.15894337,0.26711312,-0.88953215
244344840000000,-4.5752454,-0.43021965,-0.15007973,2.8548787,1.0305296,-0.85154617,0.32980043,-0.14086632,0.24379009,-0.9010854
244344860000000,-4.294037,0.9220619,-1.9541678,2.6946793,0.88453287,-0.7119634,0.3251897,-0.12538397,0.22117788,-0.91082984
244344880000000,-3.6803617,1.7095461,-3.7845068,2.068848,0.8552113,-0.472657,0.32160035,-0.111917935,0.2047792,-0.91766727
244344900000000,-2.685885,2.912239,-4.997099,1.2357804,0.93935806,-0.10873401,0.32022914,-0.09943865,0.19675736,-0.9213316
244344920000000,-2.1809468,3.7240963,-5.3438425,0.22052236,1.0294607,0.27550024,0.32116374,-0.08855703,0.19885822,-0.9216653
244344940000000,-2.3577955,3.5147088,-5.0029225,-0.7002043,1.0812315,0.70814556,0.32506987,-0.07937529,0.2100786,-0.9186382
244344960000000,-2.9925828,2.6644626,-3.9292784,-1.1336132,1.0786353,1.2237158,0.33329442,-0.07047802,0.22557823,-0.9127224
244344980000000,-3.5892525,1.5420308,-1.8091035,-0.8179486,0.9795224,1.8000672,0.34715825,-0.060016282,0.23779407,-0.9051703
244345000000000,-4.080446,-1.0784001,-0.55064297,0.30955598,0.72021013,2.2533293,0.3664648,-0.046797626,0.23851721,-0.89812195
244345020000000,-3.2064996,-1.8224635,-0.38510036,0.0,0.0,0.0,1.0,0.0,0.0,0.0
244345040000000,-1.4565965,0.462399,0.4307413,2.4061983,1.5250251,2.2649355,0.4034455,0.0033315534,0.21176131,-0.8901561
244345100000000,-1.5643985,-0.61320686,3.0663424,1.3982705,1.4456125,1.4408784,0.43526107,0.07796447,0.18516946,-0.87759995
244345120000000,-1.0121207,0.13498735,3.8879223,1.4410311,1.4327844,1.396438,0.44338003,0.099331476,0.17771311,-0.8729064
244345140000000,0.26323342,1.1996229,3.5058527,1.2373075,1.2370021,1.5500705,0.45349178,0.11833112,0.1705048,-0.866759
244345160000000,1.7218169,1.6206292,2.1825085,0.74036866,1.0461067,1.5415184,0.4642084,0.13295674,0.16707484,-0.85960406
244345180000000,2.5561314,1.0941051,1.6693745,0.35140023,0.9434814,1.5554156,0.47554362,0.14481045,0.16635747,-0.85159457
244345200000000,2.2348583,0.2585925,1.8639593,0.16279559,0.7637343,1.5248724,0.48699206,0.15427284,0.16651328,-0.84339315
244345220000000,1.8065071,-0.7484348,1.5835819,0.18173242,0.59437186,1.4373659,0.49780545,0.16230132,0.16561104,-0.8357159
244345240000000,2.3909597,-2.1184852,1.2205172,0.3501785,0.46211955,1.2479976,0.50675154,0.16929133,0.16295096,-0.82945186
244345260000000,2.9346492,-2.151156,0.92590904,0.7324274,0.4896085,1.0186177,0.51274973,0.17307736,0.15789142,-0.82595533
244345280000000,2.6607912,-0.8412145,0.4697132,0.92057395,0.49602258,0.8746063,0.51789105,0.17234407,0.14855167,-0.8246326
244345300000000,2.5099754,-0.16067672,-0.31755352,0.8147415,0.33124167,0.8801041,0.52318233,0.18037224,0.1419117,-0.82073575
244345320000000,2.4472477,1.0065856,-0.6964388,0.56199604,0.22800545,0.98547834,0.5299302,0.18641482,0.13655904,-0.8159505
244345340000000,1.0722353,1.263605,-0.49223518,-0.037415497,-0.007941248,1.1708759,0.5396779,0.18766761,0.13464163,-0.80956787
244345360000000,-0.43120432,-0.92092955,-0.2617092,-0.37216964,-0.31795537,1.3524556,0.55177003,0.18404374,0.13439703,-0.8022564
244345380000000,-1.4789557,-1.5478841,-0.47134876,-0.39813143,-0.2968805,1.3458889,0.5631698,0.18142127,0.13564909,-0.7946857
244345400000000,-2.0144653,-1.8571378,-1.2489977,-0.6122397,-0.39202276,1.2257011,0.5721088,0.17877735,0.14569099,-0.787086
244345420000000,-2.6368408,-3.2341514,-1.533267,-0.95310247,-0.56184334,0.80848014,0.58081603,0.16983671,0.14905658,-0.78204244
244345440000000,-2.881771,-4.6716843,-2.3909044,-1.1348349,-0.57833666,0.13881913,0.5844575,0.15875989,0.15453939,-0.780591
244345460000000,-1.4564605,-4.932883,-1.668097,-1.3300064,-0.44226643,-0.680962,0.5811456,0.14611477,0.1642632,-0.783542
244345480000000,-0.83111787,-5.167561,-0.22824383,-0.77304995,-0.33200526,-0.9957104,0.5745856,0.13710459,0.17011775,-0.7887418
244345500000000,-0.23316407,-4.0152206,0.07116413,-0.09407325,-0.1572978,-1.0111347,0.5667119,0.13418078,0.17093728,-0.7947413
244345520000000,0.4810629,-3.6094222,0.24763966,-0.23472497,-0.25488353,-1.057255,0.55904245,0.12918417,0.17258659,-0.8006228
244345540000000,1.2173855,-3.7880132,0.68400383,-0.6579019,-0.38362336,-1.2533427,0.5504133,0.11981763,0.17766915,-0.80692166
244345560000000,1.8704796,-2.3652904,0.17372227,-0.7293731,-0.4560109,-1.3768903,0.53998625,0.104311556,0.1844876,-0.81455404
244345580000000,2.3745506,-1.522358,-0.5575123,-0.559858,-0.54412824,-1.3469579,0.5303294,0.09301776,0.18754464,-0.8215385
244345600000000,2.4293728,-1.7364776,-1.2153149,-0.2875648,-0.5056437,-1.2082914,0.52159715,0.08498075,0.18819036,-0.82782793
244345620000000,1.8413699,-2.0605733,-1.0986962,-0.051159963,-0.38560867,-0.9839512,0.51414144,0.079099104,0.18761998,-0.83318704
244345640000000,1.0441408,-1.3952646,-0.5263462,0.05757405,-0.20143281,-0.8127562,0.5067932,0.071732916,0.18900223,-0.8380294
244345660000000,0.19317365,-0.7408166,0.36285114,-0.112704635,-0.14950927,-0.73960507,0.5009941,0.0686765,0.18977432,-0.8415903
244345680000000,-0.047348738,0.08053017,1.0507784,-0.28771752,-0.22327125,-0.6565274,0.49612185,0.063994534,0.19170813,-0.8444026
244345700000000,0.26999903,1.0219355,0.85321236,-0.28237244,-0.364992,-0.5224425,0.49272737,0.058497723,0.19221923,-0.84666973
244345720000000,0.52021503,1.0797071,0.23912716,-0.18646662,-0.52656585,-0.30879238,0.49277788,0.053154003,0.17979391,-0.8497169
244345740000000,0.5583966,0.46161342,-0.14475536,-0.14462234,-0.6444628,-0.1441642,0.49295717,0.046671618,0.17772608,-0.8504285
244345760000000,0.46590018,-0.20535326,0.15043068,-0.1863139,-0.65377855,-0.054367006,0.4938209,0.040068593,0.17611316,-0.8505995
244345780000000,0.4328822,-1.0879011,0.654603,-0.258396,-0.65500027,-0.031612277,0.49481255,0.033120543,0.17512959,-0.85052526
244345800000000,0.5118418,-1.7921553,1.2112465,-0.25870144,-0.7002043,-0.008399397,0.49604556,0.025855979,0.17393288,-0.8503045
244345820000000,1.0103631,-1.6280591,0.8370819,-0.22770002,-0.72692966,-0.056963183,0.49686384,0.0183563,0.1722475,-0.85036474
244345840000000,1.2423444,-1.5250571,0.8675165,-0.12018774,-0.7481572,-0.082619525,0.49741125,0.01117561,0.16960995,-0.8506994
244345860000000,0.67282915,-1.527097,0.9103308,0.050701816,-0.7641924,-0.05390886,0.4981989,0.0048559248,0.16524246,-0.85115755
244345880000000,0.47966582,-1.249095,0.55284214,-0.009773844,-0.7996226,-0.00076358154,0.49955037,-0.0019049679,0.1612312,-0.8511466
244345900000000,0.5365861,-1.0284436,-0.21377563,-0.21930063,-0.8219192,0.005955936,0.5004673,-0.013058139,0.16080642,-0.85059
244345920000000,0.9488841,-0.6356721,-1.0277176,-0.31230485,-0.7603745,-0.009468411,0.501524,-0.02130201,0.15983668,-0.84998363
244345940000000,0.99880534,-0.38455343,-1.0062389,-0.2452624,-0.6629415,-0.0580322,0.50199294,-0.028268527,0.15867767,-0.84972084
244345960000000,0.44684044,-0.66693735,-0.34622288,0.014049901,-0.5589417,-0.106901415,0.5019029,-0.03317836,0.15573092,-0.85014147
244345980000000,0.21338487,-0.44420242,-0.08839798,0.2396119,-0.42485678,-0.09911288,0.50175923,-0.035555985,0.15136848,-0.8509179
244346000000000,0.57851845,-0.111548185,-0.29559326,0.18753563,-0.3370449,-0.069485925,0.50174856,-0.037437566,0.1480003,-0.8514357
244346020000000,0.78243464,-0.4553361,-0.17849255,0.030543262,-0.29626966,-0.050549097,0.5017136,-0.04044178,0.14637625,-0.8515997
244346040000000,0.8897213,-0.7425475,-0.0019445419,0.0346666,-0.21303925,-0.042455133,0.50153273,-0.043065503,0.14521778,-0.8517758
244346060000000,0.8406544,-0.8112724,0.20314693,0.14844026,-0.12690726,-0.03436117,0.50148636,-0.043473747,0.14327787,-0.85211086
244346080000000,0.77312213,-0.6348746,0.38490582,0.160963,-0.07788532,-0.009773844,0.50155926,-0.04325893,0.14147875,-0.8523795
244346100000000,0.6870643,-0.6434722,0.5671015,0.092240654,-0.085673854,0.040927973,0.5020779,-0.04349272,0.14035036,-0.8522488
244346120000000,0.758348,-0.7868149,0.47106743,0.069027774,-0.082619525,0.10323623,0.503142,-0.043740574,0.13941813,-0.85176134
244346140000000,0.8004075,-1.0240376,0.2084856,0.08246681,-0.05375614,0.14645495,0.50450855,-0.043781817,0.13856071,-0.85109067
244346160000000,0.67026603,-1.3121884,0.23593807,0.08170322,0.0012217305,0.15989397,0.505901,-0.043295108,0.13806732,-0.85036886
244346180000000,0.45083976,-1.3943131,0.34970856,0.040927973,0.05100725,0.12217305,0.5068445,-0.042542834,0.13812087,-0.8498362
244346200000000,0.36464888,-1.1102021,0.34142876,0.015577064,0.0870483,0.08032878,0.50739336,-0.04159455,0.13848242,-0.84949666
244346220000000,0.29104415,-0.6206641,0.7039747,0.04428773,0.073303826,0.0627664,0.50779384,-0.04067572,0.13858022,-0.84928584
244346240000000,-0.014770508,-0.83051395,1.4747839,0.19394971,0.00290161,0.071013086,0.50848246,-0.039573375,0.13694602,-0.849191
244346260000000,-0.07338917,-0.8354559,1.4309216,0.32085696,-0.06383542,0.065209866,0.50924754,-0.03839142,0.13375904,-0.8492948
244346280000000,0.41759163,-0.56335926,0.5600376,0.2657264,-0.12232576,0.06841691,0.51010543,-0.037967607,0.1308171,-0.84925723
244346300000000,0.92133254,-0.73648787,0.020086288,0.07803804,-0.16157386,0.03863723,0.51054096,-0.04007619,0.12948216,-0.8491032
244346320000000,0.98573923,-0.49942112,-0.19033337,-0.08552113,-0.17562376,0.028863383,0.5092887,-0.054812614,0.12859651,-0.84916633
244346340000000,1.3409986,-0.27635074,-0.674284,-0.05681047,-0.14385876,0.082619525,0.5100064,-0.05718737,0.12826678,-0.8486287
244346360000000,1.6581002,-0.13009596,-0.72397804,0.12797627,-0.09285152,0.16279559,0.5114841,-0.05788156,0.12645938,-0.8479634
244346380000000,1.5627313,-0.9629054,0.71609306,0.28802297,-0.025809057,0.19318613,0.5134191,-0.056199055,0.123808905,-0.847298
244346400000000,1.0122259,-2.2588868,2.738186,0.17562376,-0.07467828,0.063988134,0.51411736,-0.05583258,0.12199889,-0.84716135
244346420000000,0.8979749,-2.782756,3.4855566,-0.030695979,-0.3022256,0.12644911,0.5153664,-0.058476273,0.12073779,-0.8464044
244346440000000,1.6469305,-2.2908905,2.4205647,-0.3231477,-0.5890268,0.1910481,0.51768506,-0.06533999,0.12074992,-0.8444835
244346460000000,2.1794267,-2.1288464,0.98144436,-0.2761111,-0.6760751,0.226631,0.5201537,-0.0725142,0.11968585,-0.84253025
244346480000000,2.082802,-2.7024636,0.65039635,-0.49113566,-0.65469486,0.1815797,0.5222006,-0.08025816,0.1204994,-0.84044343
244346500000000,1.4461101,-4.156048,1.2059565,-0.8176431,-0.73563445,0.009315695,0.5223585,-0.09104611,0.123783916,-0.83876675
244346520000000,1.083564,-4.3462963,0.7687731,-0.94913185,-0.6424775,-0.21120666,0.5203831,-0.101833396,0.12841643,-0.8380577
244346540000000,0.6266209,-5.644676,-0.3403473,-1.1010846,-0.58062744,-0.63591075,0.5146001,-0.11321957,0.13409188,-0.839278
244346560000000,0.091528416,-8.01187,-1.3189526,-1.3567317,-0.48899764,-1.4424056,0.50116944,-0.12648372,0.14146408,-0.84428614
244346580000000,-0.16748738,-8.570617,-1.4273052,-1.7844901,-0.30833423,-2.2805126,0.4793431,-0.14128983,0.15255778,-0.85263914
244346600000000,-0.4530331,-8.561529,-0.7720947,-1.6971364,-0.25534168,-3.0013337,0.4509398,-0.15649167,0.1617664,-0.8637102
244346620000000,-1.3750348,-7.6358466,-0.44503784,-1.1662945,-0.0065668016,-3.520111,0.41818863,-0.16731636,0.1661554,-0.8772206
244346640000000,-2.3504157,-5.8646784,-0.95230865,-0.70616025,0.21029036,-3.92542,0.38176194,-0.17447524,0.16622661,-0.892292
244346660000000,-2.8466775,-4.0273075,-1.5135393,-0.68508536,0.3623958,-4.190841,0.34223497,-0.18037878,0.16621631,-0.90703404
244346680000000,-3.413958,-1.6476808,-1.2115364,-0.8927795,0.41523564,-4.3145413,0.31163946,-0.16220525,0.19771746,-0.9151383
244346700000000,-4.3365884,1.1578698,-0.01054287,-0.8187121,0.46410486,-4.0289617,0.27679572,-0.15715541,0.20075317,-0.9264904
244346720000000,-4.3102922,3.4847393,-0.014315605,-0.48288897,0.5006041,-3.5269833,0.24274117,-0.16036704,0.20064382,-0.9354685
244346740000000,-4.2128296,4.319067,-1.3430381,-0.49434268,0.47708577,-3.1096096,0.21226723,-0.16294987,0.20100504,-0.94233066
244346760000000,-4.861006,5.063513,-2.1941814,-0.74372846,0.50961435,-2.567314,0.18596692,-0.16469833,0.2048782,-0.94673955
244346780000000,-5.783874,5.7120047,-2.7541742,-1.0070114,0.6626361,-1.7024814,0.16733499,-0.16334383,0.21286507,-0.9486866
244346800000000,-6.669585,6.1994286,-2.3611183,-1.4370605,0.74204856,-0.8181013,0.15630497,-0.15989585,0.22644453,-0.94801116
244346820000000,-6.9956083,6.64451,-1.6297765,-2.1138992,0.68035114,0.043066,0.15238538,-0.15626441,0.24777827,-0.94391006
244346840000000,-7.0640407,6.855915,-0.6628332,-2.7575984,0.6374379,0.872621,0.15549156,-0.1514918,0.27615276,-0.9362758
244346860000000,-6.942344,5.2209096,0.46920967,-3.121216,0.49648073,1.6577356,0.17596298,-0.1259647,0.29962054,-0.9291919
244346880000000,-7.1418185,1.9742341,0.7926798,-3.1349604,0.3378085,2.0511327,0.19053428,-0.12192978,0.33175388,-0.9158434
244346900000000,-6.5346355,0.95483255,1.7600341,-2.7096455,0.17486018,2.7490463,0.21170008,-0.1162197,0.35997373,-0.90116316
244346920000000,-5.828667,-1.1672239,1.9178658,-2.26463,-0.00045814895,3.5202637,0.24166107,-0.10760554,0.38355097,-0.88482183
244346940000000,-4.8352585,-2.6610317,0.7844286,-2.3547328,-0.399964,3.7242928,0.27355337,-0.10255062,0.4069445,-0.8654757
244346960000000,-3.5111632,-3.9336514,-0.35787582,-2.5360072,-0.9430232,4.4774895,0.31263253,-0.099551894,0.43035513,-0.8409191
244346980000000,-4.9214044,-5.2473454,-2.7176166,-1.9732474,-0.850019,3.450625,0.34291637,-0.09838394,0.44675702,-0.8204494
244347000000000,-5.2647843,-3.214954,-3.7125826,-2.0089831,-1.6433803,4.109596,0.3806588,-0.10001694,0.46103212,-0.7953269
244347020000000,-3.4127479,-2.0653806,-5.569583,-2.5934284,-2.1206186,4.7942233,0.42674887,-0.10469492,0.47747472,-0.76088256
244347040000000,-4.4140434,-5.126459,-4.524768,-3.506672,-2.8567114,4.4959683,0.4696457,-0.12011858,0.49633732,-0.7201763
244347060000000,-3.1900918,-7.3886547,-5.211696,-3.1215215,-3.382819,4.4990225,0.5138309,-0.13741764,0.5077543,-0.6777019
244347080000000,-1.1316168,-6.8601947,-7.1667314,-2.0486894,-3.6008978,4.935791,0.56190884,-0.14666745,0.50844896,-0.63578844
244347100000000,0.11010361,-5.4646697,-6.7539845,-1.8072448,-3.6054795,5.043151,0.5979285,-0.14428724,0.5090533,-0.6021026
244347120000000,2.1531997,-5.124744,-7.2468348,-2.680782,-3.4686456,4.774217,0.6387598,-0.15708713,0.51064104,-0.5536744
244347140000000,4.8363457,-8.755855,-8.062783,-3.5860844,-3.271489,3.9374847,0.658414,-0.16649716,0.5203826,-0.5176598
244347160000000,7.784903,-12.151333,-6.8188224,-3.5761578,-3.2293391,2.8965702,0.68233144,-0.19209094,0.5219451,-0.47444516
244347180000000,10.488457,-11.714166,-2.3886898,-2.8861856,-3.2213979,2.0094411,0.69105875,-0.20418064,0.5229025,-0.4553253
244347200000000,9.16909,-14.944042,-2.2362368,0.0,0.0,0.0,0.69980365,-0.2282789,0.51451117,-0.43982023
244347220000000,7.1970816,-13.313875,2.4549186,-0.889878,-3.0448577,-0.9755518,0.697131,-0.24197395,0.5008644,-0.45231834
244347240000000,7.5301695,-11.615642,2.8550973,1.5674802,-2.9999592,-1.7695239,0.7079261,-0.2520966,0.4674455,-0.46559924
244347260000000,4.7912064,-8.210302,0.2909503,3.5624135,-2.9374983,-2.9029844,0.704198,-0.24276483,0.42776173,-0.5120452
244347280000000,2.2063746,-4.8846707,-2.4072392,4.7407722,-2.8675542,-3.4016032,0.7089129,-0.23747677,0.37343583,-0.5491749
244347300000000,1.3576597,-2.2294445,-4.4324627,4.82553,-2.77287,-3.5187366,0.6925484,-0.23251228,0.32967386,-0.59802175
244347320000000,1.8922064,-0.9459338,-6.027519,3.8235583,-2.6380215,-3.6868773,0.686708,-0.23378931,0.27986497,-0.62884843
244347340000000,3.138759,-0.45056534,-6.0424857,2.3403776,-2.335185,-4.0367503,0.659049,-0.23935181,0.24537249,-0.6694457
244347360000000,4.051998,-0.9973378,-5.0938454,1.1823297,-1.6667458,-4.384638,0.63516676,-0.25430974,0.21667954,-0.69637614
244347380000000,3.7397592,-3.4555135,-4.6796217,0.21090123,-1.016938,-4.7983465,0.5905912,-0.26695618,0.20238845,-0.7341494
244347400000000,2.473247,-4.795808,-3.9579072,-0.15302174,-0.2782491,-5.2085423,0.55114305,-0.28041142,0.18853931,-0.762931
244347420000000,1.0294347,-2.1887317,-4.1708617,0.08735373,0.30482176,-5.233741,0.50333035,-0.2876274,0.17859927,-0.795004
244347440000000,0.49524045,-1.5184402,-5.3142567,0.021838432,0.690125,-4.9968777,0.4621145,-0.29038286,0.16736497,-0.8210463
244347460000000,-0.06812787,-2.9000764,-4.0501485,0.1685988,1.2522738,-4.7923903,0.4201741,-0.28915605,0.1607422,-0.8449879
244347480000000,-0.85095096,-2.6678462,-4.5397015,1.151481,1.506241,-4.386165,0.38394767,-0.27779612,0.14441667,-0.8686526
244347500000000,-1.3142343,0.6585438,-6.117326,1.6102408,1.5158621,-4.0301833,0.35134548,-0.26371807,0.12422508,-0.8897063
244347520000000,-1.4624622,2.90694,-6.4708886,0.6739371,1.617724,-3.5918877,0.31923583,-0.25127867,0.11421134,-0.9065888
244347540000000,-1.6864719,1.8695134,-4.3944044,-0.6461427,1.8251126,-2.994767,0.28820378,-0.24022456,0.11960149,-0.9191987
244347560000000,-1.3562987,-0.68464947,-3.1085067,-0.8894198,1.8235855,-2.3719897,0.26227376,-0.22893062,0.12831981,-0.92862123
244347580000000,-1.7414379,-0.588325,-2.2346458,-0.31719178,1.7713565,-1.868484,0.2421883,-0.21555443,0.13146071,-0.93680274
244347600000000,-2.3803432,4.3799276,-1.4432855,0.13454308,1.4880677,-0.86819226,0.23304999,-0.20198293,0.13106747,-0.9421846
244347620000000,-0.98126304,2.173373,-2.3241873,-0.6412558,1.2133311,-0.38026363,0.22745116,-0.19272897,0.13914649,-0.94433045
244347640000000,1.1226261,-2.7055578,-2.7536812,-0.808022,1.0795516,-0.2322815,0.22145407,-0.1921335,0.15738334,-0.9430129
244347660000000,2.9529548,-3.3194063,-2.0453463,-0.4014912,1.1217014,-0.3914119,0.21526672,-0.18330888,0.16258916,-0.9453163
244347680000000,1.5830927,-0.7378857,-0.5113144,-0.61407226,1.2618948,-0.5580254,0.20608601,-0.1758039,0.17001511,-0.947479
244347700000000,0.37094593,0.18154335,1.2922163,-1.251052,1.2075279,-0.4653266,0.1971922,-0.16785836,0.18409005,-0.9481823
244347720000000,0.84124875,-0.9383893,1.3377857,-0.91706145,1.1220068,-0.24205536,0.19131935,-0.15967265,0.19498745,-0.9486209
244347740000000,0.9839964,0.5270071,1.5605345,0.12858713,1.1630874,-0.02076942,0.189301,-0.14825128,0.195418,-0.9507883
244347760000000,-0.41017056,2.0090737,0.54716015,0.43096542,1.1018482,0.24297164,0.191677,-0.120596126,0.15991868,-0.96080315
244347780000000,-0.36702585,0.6174848,0.94453144,-0.0027488936,0.875828,0.49357912,0.19524635,-0.11151181,0.16258176,-0.9607348
244347800000000,1.693662,-1.6975596,-0.32142735,0.101556346,0.66691214,0.50442195,0.19921362,-0.10466678,0.16374964,-0.960492
244347820000000,3.01179,-1.633534,-2.5119047,0.22250767,0.6728681,0.33460143,0.20137998,-0.09952188,0.16386753,-0.96056706
244347840000000,2.582529,-0.30198884,-2.6780982,-0.15699236,0.8520043,0.07498371,0.20034197,-0.091685876,0.16730416,-0.96097153
244347860000000,0.35213935,0.51057553,-0.5348997,-0.3717115,0.88056225,0.015271631,0.19832994,-0.08388312,0.17303462,-0.96108687
244347880000000,0.03163618,-0.10117936,0.41976452,-0.2666427,0.54473907,0.03970624,0.19763894,-0.079188384,0.17674357,-0.9609526
244347900000000,1.3928828,-0.6807115,-0.67334557,-0.29046643,0.21792617,-0.047494773,0.19503109,-0.09166123,0.18315752,-0.9591738
244347920000000,1.9758378,-1.6454875,-1.7124119,-0.786489,0.2098322,-0.23258694,0.19029523,-0.103631645,0.19806027,-0.95593953
244347940000000,0.27288973,-1.3308034,-1.0406094,-0.9112582,0.31322116,-0.38973203,0.18493864,-0.10589259,0.21295813,-0.95353734
244347960000000,-1.16947,-1.2081575,-0.3111658,-0.45448375,0.20463985,-0.40332377,0.18099669,-0.103747316,0.21970995,-0.95299757
244347980000000,-0.36181843,-1.1134129,-1.6721272,0.2782491,0.086132,-0.31688634,0.17814983,-0.10319667,0.21655664,-0.9543146
244348000000000,0.9041414,-0.9524441,-3.9374804,0.6275113,0.1656972,-0.28298333,0.17591712,-0.101165116,0.20985523,-0.95644116
244348020000000,1.0684165,-0.17705536,-3.4849787,0.010079277,0.40118575,-0.24037547,0.17273809,-0.09774628,0.21021774,-0.9572961
244348040000000,0.66712034,-0.77814245,-0.56867886,-0.5206099,0.59131753,-0.1554652,0.16846806,-0.09897689,0.2217164,-0.9553345
244348060000000,-0.38795435,-1.1235771,1.5967379,-0.1600467,0.5697846,-0.04505131,0.16661118,-0.09381943,0.22430843,-0.9555754
244348080000000,-0.5316063,-0.47003126,0.45945454,0.4184427,0.38072178,0.01450805,0.16646288,-0.089423686,0.22040647,-0.9569298
244348100000000,0.0557521,0.2356162,-1.3296108,0.5369505,0.24495697,-0.0033597588,0.16651939,-0.08626556,0.21529391,-0.95837265
244348120000000,0.12111926,1.4238653,-1.3946176,0.27748555,0.1740966,-0.08506299,0.16547386,-0.084479906,0.21284147,-0.95926017
244348140000000,0.070531785,0.10467386,-0.855813,0.21288654,0.17363845,-0.12217305,0.16411558,-0.08273914,0.21129608,-0.9599866
244348160000000,-0.039770424,-1.3370438,-0.53565025,0.3669773,0.12721269,-0.26633725,0.16200496,-0.082398616,0.21186969,-0.96024793
244348180000000,-0.5069896,-0.6819134,-0.37169266,0.38927388,0.046578474,-0.46043968,0.15770076,-0.08238625,0.20796613,-0.9618177
244348200000000,-0.4454682,-0.37480402,0.3198042,0.6169739,0.0047342055,-0.57635134,0.1526184,-0.082521506,0.20156212,-0.9639869
244348220000000,0.51510155,1.0739548,0.44771767,0.7994699,-0.04184427,-0.52366424,0.1471834,-0.0838705,0.18838252,-0.9673752
244348240000000,2.3567142,1.1164389,1.8977394,0.42439863,-0.07620544,-0.42424592,0.1436743,-0.08480756,0.1837976,-0.96870214
244348260000000,1.9665253,1.0722735,3.257905,0.03436117,-0.112399206,-0.35827246,0.14037298,-0.08662533,0.18351136,-0.9690795
244348280000000,0.8648156,0.4911418,4.411768,0.40317106,-0.23304509,-0.17989981,0.13946664,-0.08866289,0.17932075,-0.96981037
244348300000000,0.5742506,0.11764288,4.287383,1.0722213,-0.45081854,0.02977968,0.14169139,-0.09147928,0.16779394,-0.971288
244348320000000,0.7290101,-1.2064235,2.866291,1.5884024,-0.67256266,0.15118915,0.14600952,-0.09555704,0.15109293,-0.9729959
244348340000000,1.0043323,-3.9966016,2.0864143,1.7481437,-0.87872964,-0.05681047,0.14851178,-0.10172234,0.13261084,-0.97468525
244348360000000,1.2896602,-5.053484,1.4205942,1.927738,-1.1887437,-0.57558775,0.14624639,-0.11135741,0.11149612,-0.9766167
244348380000000,1.4442918,2.9063303,-2.9359512,1.4567609,-1.2947289,-0.9016371,0.1398182,-0.12334845,0.09331199,-0.978023
244348400000000,-0.7410852,3.1980953,2.6372366,-0.22724187,-0.9972375,-0.5699373,0.13475154,-0.13377833,0.09502002,-0.9771984
244348420000000,0.06686139,-1.3769722,1.4471302,0.82772243,-1.2121093,-0.14278975,0.13612367,-0.14412005,0.08576574,-0.9763934
244348440000000,7.5759363,-1.9029882,-4.345582,0.79427755,-1.1910346,-0.25213462,0.13607562,-0.15570797,0.07465378,-0.9755333
244348460000000,2.374605,-0.45347142,-1.0194311,0.15088372,-0.44684792,-0.14660765,0.134111,-0.16725747,0.07406683,-0.97393703
244348480000000,-2.4153419,-0.65049446,2.2349405,0.18035796,-0.46486846,-0.06872234,0.13411191,-0.17149007,0.071707994,-0.9733772
244348500000000,-0.9270334,-5.887415,2.6306791,0.42378777,-0.7652614,-0.1244638,0.13403113,-0.1785069,0.066677175,-0.97248405
244348520000000,2.0218287,-5.9658003,0.8449955,1.3518448,-0.9245446,-0.15332718,0.13577676,-0.18610956,0.05162782,-0.97173166
244348540000000,0.954442,-3.9717128,-0.43891144,1.8245018,-0.8136725,-0.20357084,0.13768688,-0.19145855,0.031665735,-0.97127926
244348560000000,0.26368117,-3.4627361,-0.5423603,1.8608483,-0.7481572,-0.1255328,0.14081581,-0.19652991,0.0142020555,-0.9702295
244348580000000,0.86227393,-5.4806967,-3.9727163,2.1685717,-0.63224554,-0.26511553,0.1430432,-0.20003885,-0.0075092535,-0.96926093
244348600000000,0.90829706,-4.619483,-5.37707,2.5244007,-0.38835758,-0.45280385,0.14341058,-0.20007572,-0.0334836,-0.9686497
244348620000000,-0.1034174,-2.0156603,-3.1131816,2.3434317,-0.086132,-0.50991976,0.14298914,-0.19713978,-0.05751786,-0.9681847
244348640000000,-0.7244055,-2.1184375,-1.8621597,2.6554313,0.013286319,-0.48075095,0.14377289,-0.19280681,-0.08330226,-0.96706545
244348660000000,-0.2823944,-1.9172862,-5.586946,3.6370916,0.09590584,-0.47525316,0.14606065,-0.18624039,-0.11959152,-0.9641985
244348680000000,-0.84116244,0.79628634,-7.081823,3.8131735,0.26175576,-0.4427246,0.14928542,-0.17729244,-0.15775923,-0.9598924
244348700000000,-1.7144763,0.9695668,-4.8067513,3.1925344,0.22953261,-0.64766985,0.14876732,-0.16906688,-0.18855532,-0.95589316
244348720000000,-1.2929447,1.3218904,-2.5331883,3.2400293,0.15683965,-0.6580546,0.14783718,-0.16159678,-0.22007059,-0.9505785
244348740000000,-0.7232516,0.1952076,-2.9990125,3.3765576,0.09758572,-0.8428413,0.14573216,-0.15369913,-0.2535117,-0.94385946
244348760000000,-0.44522452,-0.5846839,-2.5114613,3.2943962,-0.047647487,-1.0027353,0.14086446,-0.14676242,-0.2860153,-0.9363831
244348780000000,-0.15978694,-0.9163685,-2.5640416,3.2672129,-0.16264287,-1.3051136,0.13277897,-0.14001122,-0.3183898,-0.9281135
244348800000000,-0.40342474,-1.1767206,-2.8985996,3.2053626,-0.17241672,-1.5876387,0.12174587,-0.13236164,-0.3504923,-0.91913736
244348820000000,0.35570145,-2.6218195,-2.5010462,3.2023084,-0.183565,-1.6885842,0.1096186,-0.12428869,-0.38186857,-0.9092373
244348840000000,0.5499182,-2.5919514,-2.3243628,3.6155586,0.09254608,-1.7712038,0.09818734,-0.11224254,-0.41666383,-0.8967454
244348860000000,0.35767674,-3.8748617,-3.3250098,3.969097,0.33567044,-1.7905988,0.088137686,-0.09768586,-0.45368508,-0.8813961
244348880000000,-0.029459,-4.8187885,-4.527141,4.525748,0.625526,-1.946064,0.07829399,-0.07930324,-0.49455303,-0.8619736
244348900000000,0.35438633,-3.2755384,-5.6957526,4.799874,0.97142845,-2.124742,0.068637654,-0.056460578,-0.5367178,-0.83906794
244348920000000,0.4345212,-1.8633909,-6.019973,4.68442,1.3100005,-2.399937,0.0579565,-0.029104147,-0.57574785,-0.81505126
244348940000000,-0.6048593,-2.1241713,-6.7990637,4.6102,1.6807957,-2.5954137,0.04787491,0.0023951293,-0.61216205,-0.7892781
244348960000000,-0.7300874,-1.6613703,-5.601123,4.6546407,1.9124664,-2.6320655,0.024321305,0.040752664,-0.69607216,-0.7164015
244348980000000,-0.8413855,1.3282833,-4.2784896,4.2632284,2.0105102,-2.8232665,0.016456395,0.07590808,-0.7239359,-0.68548083
244349000000000,-2.17444,3.2760906,-2.118622,3.769802,2.0587685,-2.9718595,0.0080948975,0.11215977,-0.74581826,-0.6565896
244349020000000,-4.301063,8.382013,0.7233794,3.2467487,1.8125899,-2.754544,0.00015555066,-0.14476117,0.7629825,0.63000154
244349040000000,-5.1750293,14.996144,2.9662309,2.841287,1.2012665,-1.8333594,0.0068347463,-0.16602562,0.77706885,0.6070856
244349060000000,-4.6123686,20.784061,2.1232226,3.271947,0.7672467,-0.2742785,0.007921231,-0.17141466,0.79626954,0.5800941
244349080000000,-3.4505057,19.61131,-0.015666246,2.009594,0.6421721,1.3292428,0.002028854,0.1630422,-0.81081074,-0.56213784
244349100000000,-3.1928294,8.016639,2.251717,-0.3817908,0.30955598,1.8936822,0.016435795,0.1486549,-0.81016827,-0.56679726
244349120000000,-1.8273929,-1.1878843,1.0747602,-0.41706824,0.03023783,2.3499987,0.030744387,0.1293929,-0.8102058,-0.5708579
244349140000000,0.5010624,-2.04105,-0.45814705,0.95707315,-0.056963183,2.8115072,0.04486568,0.1061302,-0.8194539,-0.5614437
244349160000000,0.46882167,0.17216587,-0.89819264,0.81306165,0.19272798,2.6648996,0.060859453,0.08547011,-0.82744294,-0.5516604
244349180000000,-0.65620273,-4.797518,-1.5470026,-0.7680103,0.23716843,2.025629,0.07431713,0.06987884,-0.8238992,-0.5574803
244349200000000,0.11685693,-14.076641,-0.2501154,-1.7035505,-0.095294975,1.0112875,0.08051688,0.060057677,-0.8145586,-0.57131803
244349220000000,2.2808402,-20.644997,2.669517,-1.9747746,-0.68584895,-0.48166725,0.07275783,0.05866554,-0.8030854,-0.5884884
244349240000000,1.6997708,-20.891804,3.190076,-0.6409504,-1.1210904,-2.0442605,0.050935466,0.06857445,-0.79861856,-0.59574443
244349260000000,-1.8794882,-12.074619,3.3587837,1.1294898,-1.5517504,-3.5193474,0.015581251,0.08905202,-0.80378926,-0.58800507
244349280000000,-3.399678,-2.5872865,-2.5488393,2.0734293,-1.7521143,-4.1421247,0.030623794,-0.11425283,0.8145951,0.56784105
244349300000000,-5.7613997,12.868061,-4.4610643,1.045954,-2.1623104,-3.7041342,0.07115274,-0.13224754,0.81487495,0.5598453
244349320000000,-6.8464994,21.461552,-1.4623494,-0.41554108,-2.7889054,-2.3802364,0.10568239,-0.13601047,0.80582356,0.5665517
244349340000000,-5.5048046,27.009544,-4.7035694,1.2782356,-3.0288227,0.8242099,0.12694204,-0.10949736,0.81049937,0.56123686
244349360000000,-8.230705,14.419953,-2.1191225,-0.9575313,-3.7146716,2.7948613,0.13850337,-0.06431286,0.80409867,0.5745486
244349380000000,-7.2168074,-5.1771283,1.9278584,-2.4234552,-5.222134,2.8684704,0.16338043,-0.014632597,0.78027165,0.6035469
244349400000000,-4.274494,-3.4950252,-5.4225254,-0.6258314,-5.6479073,4.0911174,0.18286394,0.050793808,0.7662041,0.6139317
244349420000000,-4.743909,2.4048185,-8.850364,-0.9755518,-5.813452,4.4606905,0.19886157,0.12027681,0.7471227,0.62273216
244349440000000,-5.064293,-1.5933475,-8.829454,-3.5013268,-6.2995477,4.118148,0.22521272,0.18123843,0.70348936,0.649257
244349460000000,-5.8338904,-4.101948,-11.003974,-3.4623842,-6.6217794,4.5605674,0.24733548,0.24803226,0.65498203,0.66955495
244349480000000,-5.203474,-1.3587198,-14.958035,-3.4165692,-6.457915,4.889671,0.2646251,0.31381404,0.6022842,0.6846518
244349500000000,-5.108963,-0.74975014,-17.666494,-5.083773,-5.873011,5.01612,0.2799731,0.36944568,0.53402597,0.7070652
244349520000000,-6.804308,0.91711044,-19.46212,-8.137031,-5.2821517,5.318498,0.29941016,0.40933454,0.43878886,0.74179727
244349540000000,-8.944318,-4.5399823,-22.542313,-10.779481,-5.0874386,4.758182,0.32927746,0.4306264,0.31807825,0.77779394
244349560000000,-7.651366,-11.643792,-22.609566,-7.4565268,-4.632191,4.923574,0.3373673,0.45466325,0.22201392,0.7938353
244349580000000,-5.2324347,0.2543273,-21.05149,-3.7598755,-3.037222,6.838789,0.3024104,0.48189685,0.15458703,0.80772907
244349600000000,-10.11173,-6.3080645,-29.166164,-6.2920647,-0.052839845,6.885673,0.27402377,0.47103342,0.07035725,0.8355169
244349620000000,-10.805546,-25.822025,-30.791687,-5.7581687,1.859932,6.8656673,0.24329609,0.44025517,-0.007008678,0.86425304
244349640000000,-7.412917,-28.421577,-19.606623,-2.950021,3.3363934,6.434549,0.2003002,0.40194926,-0.050961602,0.8920312
244349660000000,-8.908097,-22.558018,-9.919,-0.10720685,5.1998377,6.1286583,0.14672063,0.34987545,-0.06334497,0.92306423
244349680000000,-12.044897,-17.377039,1.1322408,0.14187345,5.21572,4.7491717,0.10536473,0.29728684,-0.069419056,0.9464142
244349700000000,-9.7804365,-11.3119955,6.679804,-1.0650436,4.711756,3.8398988,0.076655276,0.24881655,-0.086072564,0.96166825
244349720000000,-9.6911745,-6.950548,2.86129,-5.1492887,3.5662313,2.940858,0.040744968,0.16041672,-0.17383417,0.9707667
244349740000000,-10.17812,-9.3503895,2.0594234,-7.5238743,2.6816983,2.868165,0.030346258,0.12632565,-0.25156447,0.959081
244349760000000,-8.43523,-10.227261,1.5591207,-8.738732,1.7647897,3.5462255,0.01128733,0.09727958,-0.3395116,0.9354898
244349780000000,-5.8340135,-10.775417,1.051889,-8.481253,0.5681047,4.138459,0.017836628,-0.07689386,0.4217946,-0.90324885
244349800000000,-3.0495963,-10.69369,-0.76255083,-7.102683,-0.21426098,4.9322786,0.058508072,-0.059592422,0.4873174,-0.8692222
244349820000000,-2.0061576,-10.141283,-2.430967,-6.3438354,-0.5331327,5.275127,0.10375019,-0.042001355,0.54241884,-0.8326186
244349840000000,-3.109786,-10.364542,-3.8601098,-6.56054,-0.8874345,5.3264394,0.14950682,-0.027158875,0.5962063,-0.7883199
244349860000000,-2.4790463,-10.549818,-1.9225142,-6.6259027,-1.9350684,5.6199603,0.20309752,-0.018976761,0.6451209,-0.73634934
244349880000000,0.44641662,-8.634822,0.8226979,-4.7887254,-2.6309967,5.9185205,0.2647254,-0.012829996,0.67366266,-0.68988013
244349900000000,1.466857,-4.9290047,2.23971,-2.4048238,-2.364354,6.273433,0.32291594,0.007355346,0.6817101,-0.65646213
244349920000000,-0.07673359,-1.3180609,1.7332871,-0.86299986,-1.9020816,6.6329274,0.37839168,0.03809196,0.678086,-0.6289421
244349940000000,-2.0513816,0.020950794,-0.14364803,-0.33948836,-1.4492778,7.1055846,0.43178567,0.07644753,0.66989636,-0.5991293
244349960000000,-3.207003,0.2744112,-2.928784,-0.23243423,-1.0555751,7.594124,0.47620875,0.12957463,0.65698445,-0.5699186
244349980000000,-5.312072,-0.7431822,-4.080055,0.029168816,-0.51893,8.173835,0.52444905,0.1802285,0.6417237,-0.529775
244350000000000,-11.555431,-4.536415,-2.3234677,0.19303341,0.29642236,8.663901,0.55704826,0.2514987,0.6185835,-0.49376124
244350020000000,-20.077019,-7.2959757,2.1225517,0.03894266,0.45158213,8.894351,0.5952528,0.3081388,0.59686357,-0.4409971
244350040000000,-23.741652,-11.117259,2.2888608,0.86849767,-0.76831573,8.774011,0.6255831,0.37383342,0.5501557,-0.40770477
244350060000000,-15.274252,-15.873482,-10.01023,1.6203201,-1.9491183,7.7068286,0.6594398,0.4174491,0.49925867,-0.37631935
244350080000000,0.33193207,-17.979576,-9.788997,-1.4318681,-2.9594893,4.7419944,0.6894549,0.43044806,0.4548309,-0.36399892
244350100000000,10.3806925,-5.368917,3.6672888,-4.106389,-1.9995147,0.708451,0.7202005,0.39073873,0.45416644,-0.34981045
244350120000000,0.007639885,-0.8031583,7.7793765,-0.850019,1.0801625,-1.131017,0.70559925,0.39266658,0.46278927,-0.3657443
244350140000000,-10.615256,-2.2067466,1.7634373,1.8741345,1.3501649,0.35430184,0.68960327,0.41647348,0.46424875,-0.36806294
244350160000000,-3.9593554,-1.5506968,-1.9724591,-0.9995282,-1.3303118,1.5543466,0.7003991,0.42184463,0.4405349,-0.37069854
244350180000000,1.0736594,-0.5424211,-2.9563231,-4.789642,-1.9833268,1.1598804,0.73496354,0.3815308,0.4390315,-0.3485889
244350200000000,-0.44508743,-2.2352479,-2.2352521,-4.4350343,-1.9611828,1.0346531,0.7263947,0.33951902,0.4847436,-0.3494299
244350220000000,-1.3820314,-2.572567,-3.6404262,-1.1867584,-1.8397734,0.8341365,0.7415425,0.32943812,0.47180864,-0.34493756
244350240000000,-2.0403605,1.7470084,-3.1749356,1.481501,-0.8394816,0.6754643,0.741351,0.34319916,0.45798442,-0.35051867
244350260000000,-2.9718294,4.9628353,-2.1240773,1.7796031,-0.81413066,0.32513303,0.73900825,0.35624006,0.44446996,-0.35973084
244350280000000,-2.1217327,5.3997045,-1.6831305,0.6214027,-1.1629347,0.32559118,0.7431526,0.3578621,0.43242323,-0.3642376
244350300000000,-0.053126335,4.932134,-0.7587955,-1.1746938,-1.4413365,0.3755294,0.75541365,0.3446135,0.4246875,-0.36087704
244350320000000,1.2727509,3.5015574,0.3954935,-2.5700629,-1.4789047,0.1656972,0.7726779,0.32232916,0.4194148,-0.35094735
244350340000000,1.3288603,1.8804246,0.37722874,-3.2204816,-1.4251486,-0.116217114,0.7892204,0.29245272,0.4182898,-0.34152043
244350360000000,-0.24924088,0.7135322,-0.48984003,-3.3308954,-1.379181,-0.58032197,0.8020753,0.25888148,0.42060587,-0.335777
244350380000000,-1.579977,-0.015322506,-0.75038433,-2.9452868,-1.4790574,-1.1301007,1.0,0.0,0.0,0.0
244350400000000,-0.944376,-0.5154604,0.09464884,-2.3501513,-1.6055065,-1.6939293,0.81720376,0.19385424,0.4197112,-0.34415284
244350420000000,-0.08485317,-1.6543165,-1.5549517,-2.2731824,-1.7796031,-2.0702224,0.8204835,0.1598425,0.4181912,-0.35549045
244350440000000,-0.10869169,-2.9523063,-2.8460689,-2.3832908,-1.8399261,-2.3113613,0.82090724,0.12097553,0.419622,-0.3679588
244350460000000,0.364717,-3.2516682,-2.6739345,-1.8600847,-1.6835446,-2.2800546,0.8189643,0.086139806,0.41955826,-0.3819009
244350480000000,1.5838056,-2.7632525,-2.4144664,-1.1333077,-1.2330315,-2.176513,0.8121633,0.06755796,0.41412938,-0.40536872
244350500000000,2.3095012,-1.3699846,-2.004446,-0.8035932,-0.84620106,-2.2574525,0.8065551,0.04878953,0.4120779,-0.42104658
244350520000000,2.3947678,-0.037615776,-2.88268,-1.1253664,-0.72586066,-2.314874,0.7905804,0.035036273,0.4101825,-0.45332718
244350540000000,2.7724724,0.1512487,-3.5423112,-1.8474092,-0.6779077,-2.3440428,0.7830036,0.0074240393,0.41409272,-0.46408775
244350560000000,3.268261,-0.19111729,-3.0748072,-2.3142629,-0.47525316,-2.4291058,1.0,0.0,0.0,0.0
244350580000000,3.4809313,-0.63281393,-2.4980426,-2.078469,-0.116980694,-2.38268,0.75138676,-0.042394172,0.4295468,-0.49910957
244350600000000,3.487278,-0.048687935,-2.7144737,-1.5465581,0.28389964,-2.2527182,1.0,0.0,0.0,0.0
244350620000000,3.774803,1.0190582,-2.6885912,-1.2495248,0.50946164,-2.1945333,0.71277267,-0.06936126,0.44724265,-0.5358342
244350640000000,4.3449717,1.4592762,-2.2917037,-1.382388,0.6027713,-2.1901047,0.6863376,-0.077539265,0.45761323,-0.5599272
244350660000000,4.0581574,1.2142963,-1.7009659,-1.4877623,0.98868537,-2.0813706,0.6687306,-0.0918701,0.4710367,-0.56787646
244350680000000,2.1421227,0.38545752,-0.9110913,-1.2325734,1.4616479,-1.9698877,0.63825655,-0.0923131,0.4867892,-0.5891886
244350700000000,0.0011949539,-0.08975935,-0.94776607,-0.69226307,1.6762142,-1.8975002,0.6176064,-0.095942155,0.500748,-0.5988396
244350720000000,-1.357091,-0.46855164,-1.4724855,-0.43661594,1.7186694,-1.8107573,0.58678395,-0.08846034,0.5131656,-0.6200971
244350740000000,-2.656622,-0.9016056,-1.0274508,-0.64873886,1.8035797,-1.8296942,1.0,0.0,0.0,0.0
244350760000000,-4.9567437,-2.6774478,2.0435884,-0.70829827,1.8721492,-1.7539468,0.53350073,-0.083718814,0.54010594,-0.6454872
244350780000000,-6.824145,-4.545922,4.430619,-0.18875736,1.7753271,-1.7006488,0.5127749,-0.08239477,0.5492217,-0.65469736
244350800000000,-7.664955,-5.3084316,5.6368647,0.8071057,1.6614008,-1.8417587,0.48301172,-0.06985761,0.5506499,-0.67720324
244350820000000,-8.397556,-6.5087776,7.2068186,1.9698877,1.0421361,-2.4648414,0.46181598,-0.06643756,0.5397154,-0.7007277
244350840000000,-8.212065,-5.7154417,8.209509,2.955977,0.3295618,-3.2606459,0.43085182,-0.06317458,0.5170771,-0.73689014
244350860000000,-6.4422045,-3.0871868,6.7751846,3.6981783,-0.10919216,-3.6097555,0.4065957,-0.0667042,0.4855933,-0.7709927
244350880000000,-5.3208723,-0.51535654,5.201635,3.8935025,-0.6036876,-3.7062721,1.0,0.0,0.0,0.0
244350900000000,-6.422395,-0.79861593,5.813485,3.7157407,-1.5520558,-3.7545304,0.35630906,-0.08566259,0.41045666,-0.8350037
244350920000000,-6.6107073,-0.61095715,6.234415,3.454443,-2.411696,-3.6389244,0.33456066,-0.10732898,0.3695313,-0.86023045
244350940000000,-5.3040905,0.08834982,5.503643,2.9743028,-2.8530462,-3.411377,0.31887355,-0.13428362,0.3300707,-0.87826014
244350960000000,-5.4372253,-1.0832534,4.5205994,2.0934353,-3.4968982,-3.4084754,0.30055246,-0.1686453,0.29657328,-0.89065784
244350980000000,-6.251193,-5.2689404,3.6844773,1.7166841,-4.096615,-3.607312,0.2830795,-0.2109976,0.2629896,-0.8978768
244351000000000,-6.2616835,-6.8589797,2.6458826,2.222786,-4.0204096,-3.74888,0.2626706,-0.2501221,0.2239927,-0.90458304
244351020000000,-5.8543043,-4.940245,0.4007759,3.3287575,-3.5333972,-3.8292089,0.24402374,-0.28077343,0.17419392,-0.911743
244351040000000,-6.2161474,-3.4451423,-2.1352568,3.614337,-3.4353535,-3.8870883,0.22747774,-0.30565187,0.12656778,-0.9158665
244351060000000,-6.8745832,-3.9638462,-2.6962595,3.2895093,-3.5752416,-3.9245038,0.20569319,-0.3352079,0.07679929,-0.916203
244351080000000,-6.3746653,-5.812231,-2.7818432,3.2679763,-3.5602753,-3.9994874,0.18889323,-0.36089978,0.038601596,-0.91245854
244351100000000,-5.6691947,-5.220456,-2.0410295,3.9176316,-3.1202996,-3.8954878,0.1684819,-0.3824759,-0.016744269,-0.90832025
244351120000000,-5.6260185,-4.1125193,-2.1908412,4.6401324,-2.8544207,-3.6268597,0.1530935,-0.39858925,-0.077721484,-0.90091527
244351140000000,-5.8643575,-3.58322,-2.4940307,4.7149634,-2.784629,-3.2953126,0.14024158,-0.41282266,-0.13725737,-0.88942134
244351160000000,-5.203265,-3.5943832,-2.6903021,4.553237,-2.7827966,-2.9846876,0.12877946,-0.42634183,-0.19307359,-0.87428325
244351180000000,-3.667285,-3.526229,-2.61049,4.3774605,-2.7464502,-2.8017335,0.11773425,-0.43869287,-0.24609944,-0.85622567
244351200000000,-2.4202127,-2.2901082,-2.028726,3.9541306,-2.559831,-2.6736045,0.10582576,-0.44873738,-0.29393968,-0.8372785
244351220000000,-1.9310918,-1.2886677,-1.8507434,3.3328807,-2.4173465,-2.495079,0.092706576,-0.45753068,-0.33490285,-0.81848115
244351240000000,-1.7849789,-1.2474499,-1.782774,2.5047002,-2.326633,-2.339614,0.07713265,-0.4660607,-0.3673527,-0.80118036
244351260000000,-1.399692,-0.38013172,-0.90626335,1.7878499,-2.2536347,-2.355649,0.058089968,-0.47377068,-0.3935332,-0.7856836
244351280000000,-0.7959323,0.74413776,-0.8513428,1.1594223,-2.134516,-2.3313673,0.036690254,-0.48034012,-0.4145519,-0.7720582
244351300000000,-0.13209724,1.2601666,-1.3839371,0.0,0.0,0.0,0.011126442,-0.48621657,-0.4260695,-0.7628463
244351320000000,0.31990862,0.9933672,-0.255903,-0.9263771,-1.5190692,-2.0352502,0.015588187,0.4889876,0.42810655,0.75985056
244351340000000,0.47309828,0.5584178,0.9857478,-1.2571607,-1.2006557,-1.8904753,0.04130885,0.4893344,0.4269246,0.75932926
244351360000000,0.74810076,0.72754765,1.1179396,-1.1508701,-1.0468704,-1.6079501,0.063397765,0.48978707,0.4254577,0.75833714
244351380000000,0.4312563,0.8783951,0.4357332,-1.294118,-0.7787005,-1.3063353,0.082546934,0.4892232,0.42151406,0.7590604
244351400000000,0.04263878,0.5163574,-0.34853637,-1.5804611,-0.6959282,-1.1007792,0.101326294,0.48833385,0.4140136,0.76148254
244351420000000,0.123940945,-0.5799537,-1.7091675,-2.005318,-0.76144356,-0.998612,0.1211167,0.48920178,0.4027122,0.7640911
244351440000000,0.85096836,-1.5430536,-2.1006553,-2.5787675,-0.70356405,-1.1614076,0.14476086,0.48754215,0.38727805,0.7690011
244351460000000,1.125371,-1.721456,-1.4752142,-3.1412218,-0.52381694,-1.2615894,0.1708379,0.48306182,0.3675877,0.77610886
244351480000000,0.81330395,-1.3848767,-0.5715158,-3.339142,-0.30909783,-1.1963795,0.19594626,0.47608712,0.345383,0.78463787
244351500000000,0.44989395,-1.7018332,0.32100725,-3.242931,-0.2875648,-1.1754575,0.22097863,0.46773633,0.32416093,0.7920296
244351520000000,-0.06772995,-1.0693936,0.88914824,-2.958726,-0.30757064,-1.2281445,0.2440479,0.4583692,0.30271295,0.7991891
244351540000000,-1.2263169,0.20220089,0.6688895,-2.7409523,-0.45204028,-1.208597,0.26862997,0.44928113,0.28563535,0.8027433
244351560000000,-0.88723373,0.73322487,-0.38834286,-2.7134633,-0.77121735,-1.1018482,0.29186308,0.4449311,0.26704666,0.803454
244351580000000,-0.48694372,-0.37189436,-2.5050945,-2.6160305,-0.84589565,-0.8374963,0.31241828,0.44210935,0.2470869,0.8036681
244351600000000,-2.276741,-2.3533187,-2.7969031,-2.3377812,-0.45356745,-0.6076582,0.32831872,0.43682355,0.22955385,0.8054173
244351620000000,-3.5498657,-1.6684475,-1.5104017,-1.7061466,-0.33078352,-0.4990769,0.34024435,0.43235698,0.21723424,0.8062943
244351640000000,-3.1416988,-0.2008462,-1.314712,-1.2878567,-0.3538437,-0.3303254,0.34892184,0.43045023,0.2076336,0.8061356
244351660000000,-2.460271,-0.16267395,-2.4007268,-1.4104879,-0.16508633,-0.22479841,0.35692576,0.42635956,0.19681893,0.8075171
244351680000000,-1.71015,-1.3299432,-4.5451717,-1.5538884,0.12217305,-0.182496,0.3647013,0.41951564,0.1854362,0.8103166
244351700000000,-1.7802725,-2.0596027,-4.167076,-1.4995215,0.61850107,-0.14950927,0.3709828,0.4085988,0.17622906,0.8150842
244351720000000,-1.6857429,-1.3930469,-1.7222986,-1.1801916,0.95630956,0.01786781,0.37379798,0.3961108,0.17024845,0.8212106
244351740000000,-0.45004463,-1.3654327,-1.0802345,-0.7180721,1.0415252,0.15607607,0.37324205,0.38520285,0.16790536,0.8271136
244351760000000,-0.27262306,-1.6293559,-2.224865,-0.3840815,1.2144,0.17608191,0.37095842,0.3741783,0.16873442,0.83301216
244351780000000,-1.7501976,-1.8610065,-1.8328729,-0.20326541,1.534188,0.10140363,0.36817965,0.36068666,0.17256437,0.83938694
244351800000000,-2.3027697,-1.1074753,0.5491147,0.09468412,1.5949692,0.1339322,0.36400938,0.34751478,0.17891702,0.8454109
244351820000000,-1.5823917,0.07602978,1.1463122,0.42745295,1.4407257,0.30757064,0.35875705,0.3332127,0.18736199,0.8515622
244351840000000,-1.7115507,0.5495157,0.20290232,0.29428434,1.3877331,0.38423425,0.36011156,0.3082307,0.2038322,0.8566014
244351860000000,-2.6582608,-0.12009573,0.4705348,-0.0693332,1.4083499,0.3585779,0.3563101,0.29217952,0.20811836,0.8627636
244351880000000,-2.4246182,0.101588726,1.8546519,-0.07345655,1.2466233,0.40103304,0.35060287,0.28182408,0.21052139,0.86794794
244351900000000,-1.7183338,0.48455763,1.5965118,-0.011453724,1.0024298,0.44638976,0.34454715,0.27420416,0.21279743,0.872248
244351920000000,-2.048349,0.6522927,1.0773611,-0.3631594,0.8906415,0.45799622,0.33979064,0.26604608,0.21150836,0.87694126
244351940000000,-2.976922,0.08625555,1.4155593,-0.83092946,0.8565858,0.46868637,0.33642918,0.2558831,0.20553493,0.8826634
244351960000000,-2.608464,-0.92982674,0.8295574,-0.8483391,0.75991637,0.4961753,0.34052938,0.2224527,0.19669166,0.89211375
244351980000000,-2.3420672,-1.7215106,0.120194435,-0.55680364,0.7276932,0.41538838,0.3366165,0.21491246,0.19326667,0.8961864
244352000000000,-2.8064435,-1.9216478,2.1468248,-0.27488935,0.7640397,0.29229903,0.3331919,0.20750865,0.19313237,0.8992348
244352020000000,-5.423635,2.775931,10.441671,-0.06047566,0.00045814895,0.44974953,0.32969058,0.20813176,0.19068329,0.9009025
244352040000000,-3.80978,0.8351908,1.3691616,0.61743206,-0.13958271,0.75991637,0.3210039,0.21387127,0.19597754,0.9015588
244352060000000,-2.0888278,-0.91009426,-0.8739233,-0.7516697,-0.29443705,0.20204368,0.32200435,0.21407261,0.18693626,0.90307313
244352080000000,0.6422632,-2.4173646,-0.4404173,-0.4100433,-0.44119743,0.40194935,0.32053137,0.21727456,0.17997184,0.90424645
244352100000000,1.6000841,-3.829631,-2.8458438,0.34422258,-0.42287147,0.5542075,0.31491774,0.22363757,0.18117167,0.904428
244352120000000,1.9485176,-3.500166,-2.3436012,0.6542367,-0.29245174,0.3707952,0.31048033,0.22921549,0.18560629,0.9036662
244352140000000,1.3611901,-2.1275842,0.9633608,0.93019503,-0.19425514,0.2602286,0.3064057,0.2343528,0.19171238,0.90246373
244352160000000,-0.6204102,-0.22985268,1.7845325,1.0708468,-0.23823744,0.322995,0.30125013,0.2404082,0.20016153,0.9007706
244352180000000,-1.2935007,0.57458544,-0.017313957,0.8520043,-0.3193298,0.30283645,0.30165356,0.23474841,0.21537314,0.89861715
244352200000000,0.0,0.0,0.0,0.38255435,-0.3100141,0.46914452,0.29725748,0.2396809,0.21656755,0.89849293
244352220000000,0.11192322,-0.8444743,-0.5247159,0.028099801,-0.23136522,0.58383447,0.29239056,0.24293394,0.21420328,0.89978206
244352240000000,0.49118972,-1.3428752,0.37196827,0.23060162,-0.21181752,0.61621034,0.286161,0.24756105,0.20351654,0.90299857
244352260000000,0.44604158,-0.9005017,-0.3456087,0.53023106,-0.25503623,0.63438356,0.2794871,0.25278372,0.20620069,0.90303314
244352280000000,0.42661595,-0.26634645,-1.0938029,0.52564955,-0.24495697,0.66721755,0.27264762,0.25792274,0.20872965,0.90308976
244352300000000,1.0011106,-0.1568737,-0.23166656,0.34422258,-0.1873829,0.70524395,0.26551127,0.26259324,0.2090218,0.9038022
244352320000000,1.6535008,-0.2968378,-0.045548916,0.2875648,-0.21044308,0.70157874,0.2587187,0.2670745,0.20878309,0.90451396
244352340000000,1.8319991,-0.408113,-1.3719301,0.25381452,-0.23991732,0.6365216,0.2507616,0.2774052,0.20727614,0.9039921
244352360000000,1.780272,-0.22743845,-1.10778,-0.015882496,-0.1704314,0.52778757,0.24185231,0.2940113,0.20216717,0.9023266
244352380000000,2.6193905,-0.25720406,0.34226418,-0.23640485,-0.09086621,0.44898596,0.23880573,0.29503316,0.1982735,0.9036675
244352400000000,3.695487,-0.4411111,0.7013335,-0.30757064,-0.093004234,0.3819435,0.23647091,0.29589373,0.1940656,0.90491265
244352420000000,4.048363,-1.1153789,0.13178253,-0.39584067,-0.076358154,0.27152961,0.23534359,0.29622012,0.18942504,0.9060824
244352440000000,4.435582,-0.8547168,0.062538624,-0.4885395,-0.047494773,0.122020334,0.23585208,0.29575217,0.18443982,0.90713084
244352460000000,3.6168156,-1.1078405,-0.49554062,-0.57848936,0.06872234,-0.07376198,0.23819089,0.2936727,0.17954156,0.90817755
244352480000000,3.3681521,-0.777174,-0.22616863,-0.59712076,0.1601994,-0.19700404,0.24154432,0.2903209,0.17504103,0.90924734
244352500000000,3.7285433,-0.2785697,0.21640396,-0.7478518,0.2556471,-0.26358834,0.24566525,0.28581175,0.16966021,0.91059077
244352520000000,2.9179149,0.14551973,-0.0012617111,-0.8707884,0.31642818,-0.3266602,0.25057706,0.28005552,0.16337064,0.9121898
244352540000000,2.306151,-0.1687541,-1.183805,0.0,0.0,0.0,0.25563207,0.27810404,0.15456867,0.91291785
244352560000000,1.0966196,-0.062142134,-0.2591343,-1.1936307,0.39935315,-0.4071417,0.26206776,0.2710198,0.1455222,0.9147088
244352580000000,0.23062086,0.15098953,1.5111437,-1.0987939,0.43982297,-0.410196,0.26807067,0.26330775,0.13776857,0.9164208
244352600000000,-0.29382086,1.0857,2.6285276,-0.9558514,0.33444872,-0.35338554,0.27332324,0.25719425,0.1308988,0.91761166
244352620000000,-1.487293,1.2347229,0.89078426,-0.6058256,0.01740966,-0.3135266,0.27769446,0.25499287,0.12627126,0.91756207
244352640000000,-3.153067,1.7506609,-1.6890097,-0.37873647,-0.07620544,-0.15882497,0.28018346,0.25467202,0.123354055,0.9172913
244352660000000,-3.575046,2.0853536,-2.7773256,-0.3118467,-0.10888673,0.021838432,0.28075343,0.25486588,0.12040495,0.91745496
244352680000000,-4.33316,2.1773942,-1.297142,-0.6626361,-0.017562376,0.2919936,0.27981016,0.2532306,0.11364083,0.91905737
244352700000000,-5.0417204,3.788791,0.74374104,-0.8709411,-0.16065755,0.5861252,0.27668715,0.25279608,0.1037052,0.9212946
244352720000000,-6.441073,4.79817,1.4194994,-1.2794572,-0.2950479,0.9256136,0.27155623,0.25284883,0.08865501,0.92437273
244352740000000,-7.140419,3.4064965,0.45681572,-1.4358387,-0.55680364,1.0965031,0.26545247,0.2548072,0.07078102,0.9271453
244352760000000,-6.6448965,2.618568,-2.2124996,-1.408808,-0.84467393,1.2356277,0.25815037,0.25996768,0.05252006,0.9289871
244352780000000,-6.5037956,3.1636105,-4.0090256,-1.6029104,-0.8700248,1.3183999,0.25046206,0.26445198,0.032201394,0.9307508
244352800000000,-6.314471,2.6410627,-5.804046,-1.9292651,-0.9405798,1.2586879,0.24416845,0.26861477,0.008704365,0.9317468
244352820000000,-6.190913,1.3997107,-7.36731,-2.4602597,-0.8565858,1.1365148,0.24042787,0.27047887,-0.019361194,0.9320198
244352840000000,-6.040258,-0.23701452,-8.453013,-2.8458683,-0.80924374,1.0636691,0.23817043,0.27051994,-0.051075295,0.9313888
244352860000000,-5.0213203,-3.2764852,-11.017769,-2.629164,-1.0180069,0.8923214,0.23623411,0.27320158,-0.080747835,0.9289963
244352880000000,-3.817704,-4.0508313,-11.146169,-2.0839667,-0.9089675,0.6214027,0.23555884,0.27661178,-0.104031935,0.9258377
244352900000000,-3.6265788,-2.4231257,-11.546713,-1.4280503,-0.6450737,0.72692966,0.23193122,0.2783782,-0.119987085,0.92429245
244352920000000,-3.5552547,-0.63582325,-12.307931,-1.9359847,-0.634689,1.033584,0.22665201,0.2787178,-0.14200138,0.9223779
244352940000000,-2.6202774,-2.0046895,-11.603325,-3.0868547,-0.55741453,1.1146764,0.22389814,0.27514872,-0.17571226,0.9183071
244352960000000,-1.6337433,-4.2612877,-9.405772,-3.7641516,-0.18188512,1.0076222,0.2248368,0.26623768,-0.2143405,0.9124824
244352980000000,-0.9307885,-4.4053855,-5.9755545,-3.7789652,0.17012598,1.1255192,0.22351266,0.2535981,-0.25601128,0.9056425
244353000000000,-0.6781573,-5.0269217,-5.734919,-3.7539196,-0.1470658,1.2673926,0.22031045,0.24293694,-0.29419544,0.89771605
244353020000000,-0.5483465,-5.003459,-5.538611,-4.4348817,-0.7139487,1.3539828,0.2165185,0.23579216,-0.33902404,0.8846382
244353040000000,0.13641214,-5.604427,-4.507966,-5.109735,-1.1178834,1.8497,0.20792164,0.22803587,-0.39118436,0.8670312
244353060000000,0.7898321,-7.524153,-2.9013486,-5.47152,-1.4595097,2.2467623,0.19431801,0.22004949,-0.4465234,0.84524286
244353080000000,0.583518,-8.202917,-1.7771952,-5.1784573,-1.841606,2.3938282,0.1768568,0.21427274,-0.4988086,0.82097447
244353100000000,1.0056539,-9.623526,-3.582219,-3.8681514,-2.6891816,2.6134343,0.14955164,0.21642374,-0.5397344,0.7996761
244353120000000,2.064413,-8.515318,-4.168914,-2.7656925,-3.0847168,2.9119947,0.11467633,0.22173262,-0.57143533,0.78175807
244353140000000,2.1298976,-5.588331,-4.5042305,-2.3458753,-2.9029844,3.3087516,0.07697794,0.22243914,-0.59907216,0.76531553
244353160000000,2.0213962,-4.0826902,-3.2653387,-3.3267722,-2.8040242,3.4240525,0.041176487,0.22036105,-0.63322407,0.7407921
244353180000000,2.7041888,-4.1073904,-0.037409753,-4.794681,-2.7250698,3.3533447,0.010096623,0.21691528,-0.67680484,0.7034068
244353200000000,4.7375693,-6.050378,0.95490515,-4.886006,-2.731484,3.4057264,0.021363884,-0.21209753,0.7178577,-0.6627508
244353220000000,6.593314,-7.082514,0.4310372,-3.6325102,-2.2855523,3.5530977,0.05347671,-0.20228386,0.7478139,-0.63007617
244353240000000,6.2298145,-9.39649,-2.975012,-1.704925,-1.3959798,3.601356,0.09443888,-0.19802055,0.7599914,-0.61178607
244353260000000,4.72298,-10.193821,-3.2995834,-0.83276206,-0.16905695,3.3742669,0.11413455,-0.17371279,0.77052367,-0.6025698
244353280000000,3.4118264,-8.802206,1.0819917,-0.6220135,0.79366666,3.0198123,0.13426922,-0.15883571,0.7774672,-0.59353834
244353300000000,2.4386826,-8.479527,4.546485,0.9222538,1.2820535,2.807384,0.14157097,-0.12797599,0.7778052,-0.59883124
244353320000000,2.4654856,-8.313204,4.929739,3.4019086,1.4286611,2.5271494,0.15905209,-0.10571901,0.7594536,-0.6218973
244353340000000,3.6465545,-6.475626,1.8921425,5.5400896,1.6366607,1.9830213,0.16447645,-0.07132146,0.7269109,-0.66291887
244353360000000,3.590316,-6.067665,-0.5452274,5.7375517,2.0331123,0.9978484,0.16638097,-0.047535155,0.69035196,-0.7024756
244353380000000,1.7886657,-5.9300966,-0.4582889,4.7839913,2.1629212,0.13255776,0.15343688,-0.02408003,0.6601128,-0.73493433
244353400000000,1.3338103,-5.286333,0.6065663,4.6470046,1.8634444,-0.0015271631,0.14786305,-0.008574409,0.6285302,-0.7635528
244353420000000,3.06047,-3.7038813,1.9138489,4.8305697,1.3836098,-0.19120082,0.13816935,0.0076343715,0.5928088,-0.7933654
244353440000000,3.8155944,-2.6734753,2.0347426,5.2710032,1.0294607,-0.571159,0.13015644,0.01689091,0.5517497,-0.82361776
244353460000000,3.2896738,-2.0639296,-0.056815147,6.268241,0.7979427,-0.65087694,0.11884343,0.027568832,0.500061,-0.8573536
244353480000000,3.2802224,-2.2388153,-2.3313608,7.401243,0.5021312,-0.46670106,0.10994325,0.037845157,0.435486,-0.8926546
244353500000000,1.9863286,-2.5972495,-2.883428,7.735234,0.32421672,-0.45646906,0.099457905,0.04373795,0.37081835,-0.922328
244353520000000,0.1140511,-0.8972168,-2.917808,7.2825828,0.20234911,-0.047494773,0.09471719,0.05224793,0.303158,-0.9467809
244353540000000,-0.5917492,1.0172682,-2.8117313,6.180582,0.09468412,0.54473907,0.09686151,0.06074673,0.24442418,-0.9629043
244353560000000,-1.5719649,1.6457071,-2.8261242,4.8652363,-0.21426098,0.6817256,0.101193376,0.06484085,0.19783305,-0.9728401
244353580000000,-2.1778965,-0.020326376,-1.8852854,3.7905715,-0.3239113,0.66966105,0.10611475,0.06668034,0.16080059,-0.9789977
244353600000000,-3.591234,-0.29672265,-1.653799,2.3829854,-0.46502116,0.39690968,0.1137654,0.095621735,0.14697653,-0.977912
244353620000000,-3.1918104,0.26559258,-1.6859207,1.141249,-0.5375614,0.4915938,0.12072072,0.106189385,0.13815646,-0.9772733
244353640000000,-2.6313415,0.4652028,-1.3791928,0.24602598,-0.7814494,0.32268956,0.12581092,0.10470449,0.13596225,-0.97709924
244353660000000,-1.5941532,0.21552706,-1.9037704,0.010231993,-0.86620694,0.28344148,0.1296972,0.09640312,0.1349628,-0.9775839
244353680000000,-0.6234441,0.2889259,-2.282215,-0.00870483,-0.8561276,0.21868975,0.1329758,0.08837843,0.13379847,-0.97806174
244353700000000,-0.65983224,0.40296507,-2.6145992,0.14920384,-0.79351395,0.23564127,0.13612819,0.08120188,0.13111222,-0.9786138
244353720000000,-0.66983986,0.5622257,-2.3817844,0.19990565,-0.7626653,0.31123585,0.14006172,0.074627325,0.12765287,-0.97903955
244353740000000,-1.7170773,0.6388037,-2.4694223,-0.04062254,-0.8926268,0.3368922,0.14453408,0.066289,0.12661856,-0.97912383
244353760000000,-2.6126132,0.092353106,-2.7978525,-0.28970283,-0.95065904,0.38820487,0.14984228,0.057021048,0.12808338,-0.9787188
244353780000000,-2.7813492,-0.49169874,-1.9754891,-0.2761111,-0.8240572,0.32284227,0.15424426,0.04931096,0.12968595,-0.9782427
244353800000000,-3.3592887,-1.4932859,-0.23090076,-0.09773844,-0.7948884,0.1160644,0.1564016,0.041761342,0.1293104,-0.97830135
244353820000000,-3.79745,-0.63550425,-0.11995506,0.060628377,-0.74113226,-0.044898596,0.15664223,0.034639154,0.127511,-0.97877693
244353840000000,-2.7086763,0.13748384,-0.23978424,-0.025961773,-0.6844745,-0.12034045,0.15701295,0.031873226,0.12719692,-0.97885245
244353860000000,-1.7756158,-0.5764501,1.1249647,-0.16187929,-0.73655075,-0.2593123,0.15534192,0.024158783,0.12795252,-0.97924125
244353880000000,-1.7604926,-1.7102344,1.5176859,0.007330383,-0.7866417,-0.33429602,0.1530064,0.015905974,0.12677528,-0.9799307
244353900000000,-0.8733728,-1.0409484,0.7463541,0.12721269,-0.6786713,-0.34513888,0.1504178,0.009193241,0.12437329,-0.98072493
244353920000000,0.4043356,-0.76243377,0.5358429,-0.03023783,-0.65316767,-0.34972036,0.14779535,0.0023398378,0.12372899,-0.9812453
244353940000000,0.7976145,-1.1636171,1.0064182,-0.10827587,-0.61819565,-0.34162638,0.14521721,-0.0043549556,0.124084145,-0.9815784
244353960000000,0.7341175,-1.4996669,0.60735893,-0.061239243,-0.5513059,-0.3587306,0.14236481,-0.010250226,0.1239725,-0.9819664
244353980000000,0.37706944,-2.1650183,0.28722477,0.20005837,-0.50991976,-0.36667186,0.13935563,-0.015444655,0.12127652,-0.9826666
244354000000000,0.39099658,-1.4815612,0.6221447,0.5934556,-0.41034874,-0.31856623,0.13684617,-0.018913416,0.11462133,-0.98375684
244354020000000,0.6407089,-0.084496975,0.5004072,0.6750061,-0.3631594,-0.259465,0.13485926,-0.021725813,0.107091,-0.9848211
244354040000000,1.017309,0.53640056,0.25173378,0.3894266,-0.34300083,-0.28725937,0.13248909,-0.025421446,0.102541834,-0.9855382
244354060000000,1.119453,0.22262418,-0.27132797,0.10399981,-0.2883284,-0.30909783,0.12951887,-0.029648187,0.10111732,-0.98596203
244354080000000,1.1727146,-0.49454284,-0.71031475,-0.020463986,-0.21471913,-0.3126103,0.12625769,-0.033749502,0.10191703,-0.9861708
244354100000000,1.1567823,-0.6098182,-0.2676916,0.16142114,-0.08384126,-0.30863968,0.120094985,-0.04879881,0.10696106,-0.9857765
244354120000000,0.6472188,-0.24841213,-0.02277565,0.43676865,0.0154243475,-0.3381139,0.116944514,-0.048409175,0.10231578,-0.9866672
244354140000000,0.23063874,0.16399312,-0.33129883,0.5545129,0.0571159,-0.35201108,0.113654055,-0.04748818,0.09661685,-0.9876704
244354160000000,0.5918404,0.2962582,-0.83829594,0.5849035,0.08735373,-0.3304781,0.11058711,-0.046278607,0.090741545,-0.9886328
244354180000000,0.43978506,0.26795828,-0.71449566,0.56046885,0.11484267,-0.27122417,0.10808233,-0.044721313,0.085188806,-0.9894752
244354200000000,0.16075307,-0.046040416,-0.28626823,0.49648073,0.104610674,-0.19501872,0.1063475,-0.043334637,0.080396846,-0.99012566
244354220000000,-0.0073437095,-0.44779134,-0.09142971,0.4812091,0.080634214,-0.14935656,0.105071545,-0.04213106,0.07572406,-0.990682
244354240000000,-0.22846064,-0.3112868,0.03925419,0.3707952,0.06169739,-0.13255776,0.103870176,-0.041246098,0.07203653,-0.9911208
244354260000000,-0.2318371,-0.26927638,0.1782875,0.03481932,0.012064588,-0.12339478,0.10269478,-0.041185275,0.07174553,-0.991267
244354280000000,0.12865359,-0.9713074,0.3592205,-0.23335053,-0.079107046,-0.1601994,0.101032354,-0.042454116,0.07437331,-0.99119055
244354300000000,0.39419818,-0.6785402,0.7418814,-0.008246681,-0.08628472,-0.11209377,0.099960506,-0.043454885,0.07435398,-0.9912573
244354320000000,0.2695294,0.17417371,0.26458836,0.044593163,-0.0842994,-0.0852157,0.09928661,-0.044269897,0.073430814,-0.99135786
244354340000000,0.4360119,0.5134493,-0.35630512,-0.3211624,-0.08170322,-0.10873401,0.09811033,-0.045426425,0.07657601,-0.9911847
244354360000000,0.39950585,0.4071263,-0.69596577,-0.6656904,-0.09254608,-0.105832405,0.09676154,-0.0471379,0.08341954,-0.9906848
244354380000000,0.43911946,-0.2849654,-0.5283613,-0.6377433,-0.09208794,-0.063224554,0.09595421,-0.0487494,0.08985782,-0.99012226
244354400000000,0.46801788,-0.48538542,0.024944305,-0.19456059,-0.045356743,-0.033292156,0.095559664,-0.049435228,0.09165099,-0.989962
244354420000000,0.38248855,0.27162564,0.21193314,0.20265454,0.040011674,0.034055736,0.096007355,-0.048735023,0.0891564,-0.9901811
244354440000000,0.4246118,0.8757305,-0.001414299,0.029932396,0.040011674,0.081855945,0.096859045,-0.048255213,0.08849882,-0.99018073
244354460000000,0.38710302,0.27251554,-0.051446915,-0.3578143,-0.026419923,0.059406646,0.097289406,-0.048867814,0.09237532,-0.98975426
244354480000000,0.39362514,-0.9182751,0.0672493,-0.32177326,-0.07788532,0.0346666,0.0974776,-0.05016255,0.09595823,-0.98933005
244354500000000,0.59759223,-0.5384979,-0.039560318,0.06765333,0.018020526,0.06047566,0.09807074,-0.049923167,0.09521522,-0.9893554
244354520000000,0.62291694,0.28308117,-0.2741356,0.1591304,0.069485925,0.077579886,0.09892091,-0.048891224,0.09328199,-0.98950636
244354540000000,0.62459826,0.5330856,-0.21173191,-0.24602598,0.06078109,0.04841107,0.099167995,-0.048520114,0.09592956,-0.9892468
244354560000000,0.50929767,-0.27771258,-0.013453484,-0.49373183,-0.001985312,0.04444045,0.09932785,-0.049132276,0.10129675,-0.98866534
244354580000000,0.50172,-0.6298363,0.25048733,-0.22082779,0.03863723,0.10720685,0.10021689,-0.04891869,0.10364537,-0.98834264
244354600000000,0.6587126,0.0505383,0.35267925,0.1001819,0.12660182,0.1853976,0.102079235,-0.047273222,0.10247081,-0.9883546
244354620000000,0.65544367,0.33312464,0.4385128,-0.045814894,0.14935656,0.15195273,0.10344095,-0.045587737,0.10293683,-0.9882438
244354640000000,0.48930997,0.21673536,0.5005665,-0.4250095,0.14492778,0.12568553,0.1042384,-0.044574384,0.10762132,-0.987707
244354660000000,0.51748055,0.51245165,0.9407387,-0.66691214,0.18463401,0.22327125,0.10595754,-0.043157365,0.11472862,-0.9867866
244354680000000,0.2349152,-1.1474609,2.1265907,-0.6414085,0.030543262,0.2312125,0.10801591,-0.043323256,0.12142614,-0.9857542
244354700000000,-0.13834953,-1.7633147,2.8521414,-0.1965459,0.06536258,0.23777929,0.11014952,-0.042736888,0.123490915,-0.9852871
244354720000000,0.011218607,-0.86699295,2.6076202,0.236863,0.15699236,0.23655757,0.11244769,-0.040467095,0.1208794,-0.98544717
244354740000000,0.38517308,-0.40536666,2.2229633,0.16325374,0.22983804,0.16417004,0.11383905,-0.037765086,0.119390495,-0.9855763
244354760000000,0.20310834,-1.5092859,2.9378262,0.16172658,0.23793201,0.023823744,0.11373442,-0.035240773,0.11853793,-0.98578465
244354780000000,-0.4901681,-2.8505414,3.8011913,0.9868528,0.30451632,-0.07009678,0.11298983,-0.031212533,0.10901863,-0.9871039
244354800000000,-1.1782327,-2.2562604,3.3789558,1.7672331,0.41813725,-0.27565295,0.11029987,-0.025109151,0.09118087,-0.98938847
244354820000000,-1.1529242,-1.0535419,2.3151064,1.9205604,0.3474296,-0.552833,0.10474837,-0.020013928,0.07210462,-0.9916795
244354840000000,-0.5067135,-1.0009941,1.476203,1.8307631,0.28680122,-0.7254025,0.09764558,-0.015768554,0.054102607,-0.9936245
244354860000000,-0.6317935,-1.3589066,1.963563,1.6038266,0.1797471,-0.9315695,0.088335626,-0.013028639,0.038495794,-0.9952614
244354880000000,-0.5164909,-1.8726604,2.6853638,1.4955509,0.09666943,-1.0059423,0.07843713,-0.011187907,0.023713889,-0.99657416
244354900000000,-0.017297342,-2.2148893,2.7294388,1.3174837,0.015271631,-1.1606439,0.06695364,-0.010339423,0.010687797,-0.99764526
244354920000000,0.2671547,-2.175824,2.280387,1.2554808,-0.06841691,-1.288773,0.0541212,-0.01041061,-0.0017266693,-0.9984787
244354940000000,0.18164563,-1.7145402,2.2956343,1.4194981,-0.12629639,-1.359786,0.040634297,-0.010936845,-0.016009694,-0.998986
244354960000000,-0.019899398,-1.0256984,2.0986795,1.5972599,-0.23319781,-1.4033102,0.026761554,-0.012395653,-0.03230771,-0.9990428
244354980000000,0.29703102,-0.92505896,1.5055599,1.6259706,-0.36942077,-1.4692836,0.012141272,-0.015283204,-0.0488806,-0.99861395
244355000000000,0.63814044,-1.276375,1.1734962,1.597718,-0.48181996,-1.5163202,0.0030157724,0.019250156,0.06488637,0.9977025
244355020000000,0.53458154,-1.4226942,0.87780285,1.8602374,-0.5332854,-1.4931073,0.017919814,0.023836177,0.08339798,0.99607
244355080000000,0.0,0.0,0.0,2.6219864,-0.49861875,-1.4482088,0.059837714,0.040548522,0.14385282,0.98695576
244355100000000,0.08672202,-2.2533956,-1.6301332,3.1447344,-0.36835176,-1.4124732,0.07292387,0.04400583,0.17519024,0.98084354
244355120000000,-0.13146335,-1.8959875,-1.4983959,3.8186715,-0.23839016,-1.3593279,0.084846914,0.046611525,0.21321748,0.9721969
244355140000000,-0.23393872,-1.894669,-1.938592,4.365243,-0.19349156,-1.259146,0.09524851,0.04945484,0.25615188,0.96066034
244355160000000,0.052757412,-2.2231336,-2.8314466,4.777119,-0.14309518,-1.2270756,0.10481935,0.052289635,0.30237168,0.9459652
244355180000000,0.15912856,-1.2458696,-3.149249,4.8882966,0.032528576,-1.1997393,0.1132427,0.05339569,0.3491212,0.9286761
244355200000000,-0.37802854,0.3299427,-3.2713633,4.448626,0.06627888,-1.1357512,0.12107446,0.05364328,0.39083555,0.9108847
244355220000000,-0.35690933,0.42921638,-3.1388407,3.5851681,0.0106901415,-0.9764681,0.12778683,0.054084267,0.42345333,0.89522785
244355240000000,0.3433141,0.008918285,-2.9391718,2.641992,-0.0065668016,-0.86437434,0.13408192,0.05383788,0.44669333,0.88294315
244355260000000,0.9171098,-0.27476883,-2.5444498,2.0325015,0.07452556,-0.6973027,0.13866185,0.05279235,0.4645036,0.8730535
244355280000000,0.73083174,-0.21503544,-2.163327,1.6960673,0.20372356,-0.5386304,0.14139095,0.05082049,0.47957253,0.86454386
244355300000000,0.4058416,-0.644475,-1.8803945,1.4379768,0.22556199,-0.35521814,0.14244087,0.049185228,0.4923157,0.8572728
244355320000000,0.6986178,-1.1579695,-1.9579911,1.2180653,0.25121832,-0.27046058,0.14281449,0.047545277,0.503039,0.8510554
244355340000000,1.0036886,-0.88142014,-1.9021492,1.1691961,0.3107777,-0.20570888,0.14238952,0.045526948,0.5133873,0.84503615
244355360000000,0.9706969,-0.9563556,-1.7624018,1.156826,0.3669773,-0.088728175,0.14059937,0.04370976,0.52377886,0.8390334
244355380000000,0.7921482,-1.1329947,-1.6662807,1.02717,0.38240165,-0.03726278,0.13837214,0.041769277,0.5328913,0.8337479
244355400000000,0.7278467,-1.087532,-1.5828385,0.8917105,0.38148534,0.05681047,0.13544933,0.040190574,0.54073644,0.829242
244355420000000,0.6788583,-0.81833935,-1.3523679,0.7641924,0.37415496,0.10445796,0.13216126,0.038740277,0.54742306,0.8254458
244355440000000,0.5381281,-0.9048977,-1.0936685,0.68829244,0.26923886,0.111941054,0.12950176,0.038069297,0.5533474,0.82194084
244355460000000,0.63782686,-1.1962681,-0.98870444,0.6281222,0.17760907,0.09392053,0.12753646,0.03807422,0.5586677,0.8186423
244355480000000,0.7798813,-1.1454506,-0.9893689,0.52106804,0.15851954,0.07620544,0.1258747,0.037913702,0.5630529,0.815898
244355500000000,0.7120891,-0.69168377,-0.84874153,0.41034874,0.15974127,0.10720685,0.12392999,0.037696164,0.5664874,0.8138259
244355520000000,0.556397,-0.3751192,-0.878989,0.30741793,0.10567969,0.10216721,0.12234646,0.037820492,0.5690332,0.81228215
244355540000000,0.5012283,-0.5251312,-0.89006925,0.2452624,0.0355829,0.056352317,0.121654995,0.038179785,0.5709621,0.81101465
244355560000000,0.53654677,-0.7782297,-0.5965495,0.20250183,0.020158553,-0.0070249503,0.12158399,0.038215775,0.5725908,0.80987453
244355580000000,0.49685284,-0.61355877,-0.2017045,0.25992316,0.021685716,-0.009315695,0.12147032,0.038283695,0.57468414,0.8084043
244355600000000,0.42552543,-0.34486198,-0.19523025,0.3080288,0.020158553,0.009010263,0.12113546,0.038560614,0.57729757,0.80657727
244355620000000,0.53174895,0.0787344,-0.5888481,0.23014349,-0.012675454,0.04230242,0.12073132,0.039300013,0.579168,0.8052602
244355640000000,0.62312853,0.11199856,-0.8043783,0.10048734,-0.016493361,0.02107485,0.1203787,0.040061925,0.58017987,0.80454665
244355660000000,0.3790489,0.042934418,-0.6842959,0.062002823,0.019547688,0.014202617,0.12014246,0.040040992,0.5806457,0.8042469
244355680000000,0.1892811,0.13650227,-0.62116313,0.092240654,0.020158553,0.047494773,0.11953317,0.0402808,0.58151513,0.80369747
244355700000000,0.36285013,0.25628662,-0.5597708,-0.008552114,-0.002443461,0.06627888,0.118990004,0.040775634,0.5814797,0.80377865
244355720000000,0.47783238,0.18545914,-0.5880523,-0.08964448,0.009468411,0.10919216,0.11798377,0.04138745,0.58077484,0.80440515
244355740000000,0.4500324,0.112688065,-0.7376647,-0.10094548,0.02031127,0.11927144,0.11684196,0.04192353,0.5800473,0.8050687
244355760000000,0.5284796,-0.1134119,-0.9267926,-0.12003502,0.013897184,0.1226312,0.11576371,0.042450484,0.57914466,0.8058463
244355780000000,0.73377347,-0.39034462,-0.91973233,-0.10445796,0.015882496,0.09285152,0.11498098,0.042763874,0.5782202,0.80660534
244355800000000,0.698946,-0.47689915,-0.6590295,0.0804815,0.073303826,0.056199603,0.11407495,0.042603064,0.57900363,0.80618036
244355820000000,0.5810822,-0.20980263,-0.6646373,0.15042557,0.123242065,0.014813482,0.11313408,0.04182403,0.58055925,0.8052344
244355840000000,0.78969413,-0.12701893,-0.65893126,-0.074067414,0.100792766,-0.0065668016,0.11257327,0.040999483,0.5801286,0.8056657
244355860000000,0.818798,-0.5398979,-0.4894619,-0.25152376,0.1020145,-0.012675454,0.11222369,0.039829526,0.5779907,0.8073081
244355880000000,0.48992014,-0.87171745,-0.43458462,-0.13118331,0.13530666,-0.0421497,0.11182073,0.038322486,0.57705146,0.8081084
244355900000000,0.32616752,-0.6564188,-0.49193406,0.015271631,0.11881329,-0.0870483,0.11183114,0.03685605,0.5775282,0.80783457
244355920000000,0.4859649,-0.3520441,-0.6178508,-0.1217149,0.064446285,-0.09483683,0.112310305,0.035665818,0.5767263,0.8083942
244355940000000,0.6833471,-0.6890745,-0.87781096,-0.43157628,0.0061086523,-0.062002823,0.11294599,0.034799963,0.5731219,0.81090295
244355960000000,0.7583691,-1.225584,-1.0565851,-0.70096785,-0.037873644,-0.049785517,0.113784,0.03410152,0.5672223,0.81495345
244355980000000,0.6742813,-1.649231,-1.1756816,-0.8556695,-0.09239337,-0.050701816,0.11501827,0.033608034,0.5600592,0.8197409
244356000000000,0.44144726,-2.2834902,-1.5443721,-1.07665,-0.21181752,-0.014202617,0.116643414,0.034084246,0.55099857,0.82561076
244356020000000,0.6573827,-2.53508,-1.9181323,-1.5456418,-0.41706824,-0.012980887,0.11958229,0.03574846,0.5375852,0.8339211
244356040000000,1.7874367,-2.6563973,-1.8010247,-2.1630738,-0.65026605,-0.09407325,0.12460529,0.03834081,0.51839083,0.8451476
244356060000000,2.2812533,-2.8114038,-2.0147452,-2.8510609,-0.6907359,-0.23273966,0.13131003,0.039572094,0.4929959,0.8591548
244356080000000,2.1095223,-2.9693937,-2.4552352,-3.6899316,-0.6795876,-0.35643986,0.13903871,0.038816717,0.45996204,0.87612575
244356100000000,1.5486543,-3.0443134,-2.928794,-4.820796,-0.75915277,-0.4503604,0.14820683,0.036565907,0.41579977,0.89655364
244356120000000,1.2551155,-3.5142322,-2.5172276,-5.5616226,-1.0670289,-0.49189925,0.15887794,0.03591171,0.3629831,0.91744834
244356140000000,1.4259492,-4.100633,-1.8711624,-5.5465035,-1.1473577,-0.66431594,0.1709495,0.03542904,0.30944973,0.9347524
244356160000000,1.5502284,-3.6148672,-1.7750411,-5.1584516,-1.021214,-0.89812464,0.18421909,0.03337589,0.25954118,0.94741106
244356180000000,1.4236271,-2.279611,-2.4391236,-4.93518,-0.9062186,-0.9773844,0.1973018,0.030294692,0.21152781,0.95677084
244356200000000,1.1518828,-1.1775422,-3.653028,-5.1355443,-0.7939721,-0.9399689,0.20919855,0.025837656,0.16112988,0.9641606
244356220000000,1.1188084,-0.5609138,-4.7187347,-5.6883774,-0.6302602,-0.92072666,0.22015141,0.018519502,0.10493299,0.9696285
244356240000000,1.5185713,-0.26007962,-6.372208,-6.3887343,-0.35185838,-0.84604836,0.22948776,0.0070163403,0.04195131,0.97238183
244356260000000,2.0014596,-0.27684343,-8.478409,-7.201032,0.13271047,-0.6275113,0.23542106,-0.010893582,-0.028326746,0.9714196
244356280000000,1.7479893,-0.48794198,-7.3882246,-8.14039,1.0598512,-0.4036292,0.23789316,-0.04040647,-0.10551778,0.964697
244356300000000,-0.48019087,-0.7504108,-3.077155,-8.271879,2.0853412,-0.023823744,0.23623522,-0.08119495,-0.18060197,0.95130616
244356320000000,-3.5830703,-1.5624142,1.0700998,-6.3361998,2.2299635,0.8379544,0.22650515,-0.11961109,-0.2341688,0.9378452
244356340000000,-3.6745682,-1.9306626,2.4816914,-2.9976685,2.0665572,1.8542814,0.20964539,-0.14957102,-0.25304538,0.9325478
244356360000000,-3.0679116,-2.0984101,1.8709798,-0.5357288,2.1943808,2.2678373,0.19292432,-0.1765322,-0.24731934,0.932979
244356380000000,-4.1017346,-2.419057,1.2560983,0.3408628,2.1988094,2.2867742,0.17778961,-0.20194525,-0.2344085,0.9341637
244356400000000,-5.4377546,-3.5899572,1.9428172,-0.0009162979,1.9489655,2.3090706,0.16072933,-0.22545362,-0.22576617,0.93400556
244356420000000,-6.4890366,-5.409786,3.4727197,-1.2567025,1.42973,2.1288655,0.14093564,-0.24543898,-0.23079056,0.93093103
244356440000000,-6.628257,-6.250118,3.8710756,-2.505311,0.839787,1.9113973,0.11870837,-0.26087373,-0.2494396,0.9250044
244356460000000,-5.123065,-6.8603926,3.8147159,-3.1951306,0.43417248,1.7273742,0.095125616,-0.27243102,-0.27436703,0.9173087
244356520000000,-1.6511788,-3.3584824,5.786553,-4.3040037,-0.6160576,1.4107933,0.021083392,-0.28731123,-0.37907636,0.87937987
244356540000000,-0.024143219,-2.18716,6.508636,-3.6367862,-0.82711154,1.5908458,0.0066032587,0.28642532,0.40578502,-0.867903
244356560000000,0.36331272,-1.6815515,6.56989,-2.8299859,-1.0729848,1.553583,0.03235206,0.2828692,0.42498142,-0.85926086
244356580000000,0.49972725,-1.4465528,5.9857697,-1.8973475,-1.3432927,1.6720909,0.05755315,0.2774008,0.43527833,-0.854558
244356600000000,0.8918104,-1.2319851,5.119438,-0.7910705,-1.3374895,1.6055065,0.07916526,0.2722923,0.4358684,-0.8541712
244356620000000,1.0463638,-0.43389082,4.4839063,-0.03191771,-1.1898128,1.4559973,0.09643808,0.26836565,0.43036082,-0.85642815
244356640000000,0.999248,0.3310914,4.1347804,0.24022275,-1.087951,1.2114985,0.11061936,0.26449743,0.42341697,-0.85937333
244356660000000,0.48072433,0.47875643,3.8003106,0.33460143,-1.1027645,0.7770206,0.120804384,0.2584815,0.41712785,-0.86290085
244356680000000,0.14441156,0.5954237,2.8244429,0.41645738,-1.0419834,0.45830166,0.1277002,0.25171253,0.41096595,-0.86685663
244356700000000,0.0730114,0.9605527,1.4628963,0.43844852,-1.0083858,0.2640465,0.13409817,0.2432518,0.39954713,-0.87361795
244356720000000,0.041186333,1.1209345,0.4433403,0.3129157,-1.075581,0.09560041,0.13844888,0.23463753,0.39482215,-0.87743527
244356740000000,0.32774448,1.2995443,-0.21519375,0.083383106,-1.1296426,-0.0036651916,0.14263834,0.2246738,0.39261597,-0.88035727
244356760000000,0.77907467,1.5317335,-0.6049857,-0.15027285,-1.1227703,-0.059864793,0.14687113,0.21429235,0.3925574,-0.8822735
244356780000000,0.7181258,1.243525,-0.5735812,-0.33444872,-1.1559098,-0.12721269,0.15097085,0.20307791,0.3941884,-0.88350594
244356800000000,0.51795626,0.7053366,-0.53257847,-0.4279111,-1.1415545,-0.18066339,0.15472367,0.1915731,0.39668882,-0.8843068
244356820000000,0.63736296,0.67638683,-0.70179605,-0.36117408,-1.0526736,-0.20066923,0.15775642,0.18094471,0.39867276,-0.885117
244356840000000,0.8079715,0.7335782,-1.064702,-0.23900102,-0.93294394,-0.2519819,0.15962157,0.17139947,0.39964774,-0.88624203
244356860000000,0.77019644,0.7631507,-1.1017199,-0.25870144,-0.821461,-0.36880988,0.15994266,0.1623035,0.40126216,-0.8871667
244356880000000,0.53953743,0.46828985,-0.99129486,-0.27840182,-0.7367035,-0.4868596,0.1589373,0.15334126,0.4034093,-0.8879676
244356900000000,0.2916193,0.094043255,-0.6541543,-0.2209805,-0.6058256,-0.59880066,0.15630217,0.14526518,0.40535626,-0.88890606
244356920000000,0.108253,-0.23597908,-0.4119258,-0.12690726,-0.4813618,-0.72692966,0.15185775,0.13789073,0.40674973,-0.89021355
244356940000000,-0.118843794,-0.27716398,-0.17590666,-0.0047342055,-0.3483459,-0.81306165,0.14591481,0.13155559,0.40736863,-0.8918816
244356960000000,-0.45728397,-0.49175406,0.0851717,0.13775012,-0.27763826,-0.8749117,0.1390041,0.1258024,0.40678933,-0.89407724
244356980000000,-0.8778298,-0.44907093,0.1225481,0.2509129,-0.20234911,-0.91645056,0.1312261,0.12063677,0.4053445,-0.8966171
244357000000000,-1.134126,-0.17693472,0.02062893,0.3371976,-0.16355917,-0.8730792,0.12365101,0.11619797,0.4030777,-0.899298
244357020000000,-1.382515,-0.1420145,0.07207441,0.32589662,-0.1638646,-0.81061816,0.11673567,0.1120234,0.40081215,-0.9017612
244357040000000,-1.4590721,-0.39262056,-0.22196388,0.11285736,-0.12034045,-0.7629707,0.11047659,0.108526334,0.40065527,-0.9030462
244357060000000,-0.96681046,0.09713411,-0.3178811,-0.16065755,-0.063682705,-0.6986771,0.1109234,0.119634524,0.4066717,-0.8988892
244357080000000,-0.57908535,0.78583574,-0.43305016,-0.45158213,0.007483099,-0.600786,0.106128514,0.11686238,0.41154367,-0.8976144
244357100000000,-0.2508006,0.88004875,-0.51684904,-0.83367836,0.008399397,-0.5653558,0.102043614,0.11375787,0.419862,-0.89462966
244357120000000,-0.10789609,0.3893485,-0.34366655,-1.1449142,-0.028710667,-0.5025894,0.0990115,0.11017353,0.4309017,-0.8901586
244357140000000,0.06708956,-0.46694946,-0.10091877,-1.1643091,-0.074067414,-0.3472769,0.09759943,0.1068343,0.44168815,-0.8854222
244357160000000,0.5831566,-0.9634042,0.0055065155,-0.9602802,-0.069027774,-0.13469578,0.097853564,0.104687646,0.45016554,-0.8813718
244357180000000,1.0217359,-0.5775857,0.38810444,-0.7496844,-0.004276057,0.0852157,0.09939248,0.104268566,0.4564257,-0.87802327
244357200000000,0.7345741,-0.5694876,0.5358105,-0.6916522,-0.07788532,0.23075435,0.10260612,0.104203045,0.46202636,-0.8747259
244357220000000,0.72962785,-1.1045637,0.05732441,-0.68798697,-0.30085114,0.17913623,0.106362455,0.10146655,0.46757337,-0.871646
244357240000000,1.4202056,-1.0596681,-0.22702026,-0.5673411,-0.32375857,0.18997909,0.109047666,0.09737145,0.47276258,-0.868978
244357260000000,1.2733439,-0.44271088,-0.30568123,-0.49006665,-0.2828306,0.15118915,0.097770944,0.07425763,0.48322672,-0.866844
244357280000000,1.1559653,-0.23886395,-0.42485714,-0.4605924,-0.27870727,0.09987647,0.098509744,0.06941354,0.48799786,-0.8644858
244357300000000,1.101228,-0.42434692,-0.24473286,-0.41386122,-0.3408628,0.074830994,0.09697558,0.060625777,0.49343714,-0.8622297
244357320000000,1.3784689,-0.6607771,0.13754272,-0.25992316,-0.37507126,-0.005192355,0.09820297,0.056043293,0.4954386,-0.8612526
244357340000000,1.4662774,-0.83090687,0.18582344,-0.00580322,-0.3436117,-0.0580322,0.0990753,0.05245516,0.49512652,-0.8615581
244357360000000,1.2853452,-0.80466175,0.020321846,0.22250767,-0.35521814,-0.0664316,0.09968448,0.04876374,0.49292588,-0.8629654
244357380000000,1.159103,-0.760767,-0.28869057,0.42287147,-0.39492437,-0.03436117,0.100285284,0.04439289,0.48942333,-0.8651225
244357400000000,1.1173615,-0.73380756,-0.45691013,0.54825157,-0.5019785,-0.030543262,0.10068073,0.037969388,0.48571151,-0.8674711
244357420000000,1.1159633,-0.9959526,-0.4399457,0.68523806,-0.6200282,-0.021533,0.102915056,0.03251027,0.479474,-0.87089396
244357440000000,1.2075962,-1.0424223,-0.29604626,0.73929965,-0.68019843,0.005192355,0.10581304,0.026985765,0.47243056,-0.87457687
244357460000000,1.113259,-1.0161295,-0.1925273,0.711658,-0.7464773,-0.0027488936,0.10903019,0.021043576,0.46547666,-0.8780668
244357480000000,1.0289553,-0.9513316,-0.41350794,0.6010914,-0.79213953,0.006414085,0.11234675,0.014174078,0.45973757,-0.8808057
244357500000000,0.9146043,-0.41879368,-0.57053137,0.38774672,-0.7809912,0.042913284,0.111968264,0.00050982804,0.46056068,-0.88053775
244357520000000,0.9214928,0.0020241737,-0.7051401,0.067500606,-0.7817548,0.040927973,0.11589656,-0.0061461353,0.4592613,-0.8806868
244357540000000,0.83789957,0.10935354,-0.78736544,-0.2669481,-0.7507534,-0.018784106,0.1191349,-0.013248323,0.46097723,-0.8792789
244357560000000,0.77862483,0.42175198,-0.4153738,-0.6282749,-0.37950003,-0.15851954,0.12125638,-0.023937864,0.46994248,-0.8740012
244357580000000,0.68311626,0.63339615,-0.115026474,-0.698219,-0.18081611,-0.27763826,0.11935939,-0.027577283,0.47587308,-0.87094074
244357600000000,0.543542,0.8976488,0.12309599,-0.6957755,0.021838432,-0.39660427,0.11547628,-0.03003644,0.48182,-0.86810863
244357620000000,0.30832964,0.9601574,0.22641087,-0.65041876,0.20861048,-0.5010622,0.10978423,-0.03127732,0.48757032,-0.8655891
244357640000000,0.13338977,0.5025368,0.51823854,-0.5487097,0.35124752,-0.57971114,0.102776974,-0.03158716,0.4923654,-0.86372185
244357660000000,-0.047531545,0.4481249,0.8901701,-0.49037206,0.48395798,-0.64553183,0.09453515,-0.030942548,0.4965473,-0.8622914
244357680000000,-0.0952054,0.43795776,1.021492,-0.43600506,0.551764,-0.6603453,0.08585645,-0.029668538,0.50015134,-0.86116034
244357700000000,0.20617464,0.23145485,0.69979334,-0.47128254,0.6374379,-0.68829244,0.07661379,-0.02799714,0.50437737,-0.85962206
244357720000000,0.22948445,0.26503277,0.67927456,-0.711658,0.6769914,-0.7545713,0.06641039,-0.026472332,0.5107812,-0.8567331
244357740000000,0.5219677,0.10694122,1.0395613,-1.0276281,0.65316767,-0.7870999,0.05600103,-0.025639003,0.5197957,-0.8520675
244357760000000,1.2774854,-0.12191391,1.5299821,-1.387275,0.6084218,-0.8003862,0.045583054,-0.025342142,0.5318077,-0.8452577
244357780000000,2.2753396,-0.4465618,1.611475,-1.4443909,0.46028697,-0.80909103,0.035992704,-0.026632253,0.5441874,-0.8377681
244357800000000,3.0098789,-0.694788,1.3020308,-1.2950343,0.5500842,-0.9254609,0.024895845,-0.027659154,0.55469704,-0.8312199
244357820000000,3.5324397,-0.079072,0.16747594,-1.4043792,0.71578133,-1.0629056,0.011365832,-0.028111743,0.5659583,-0.823876
244357840000000,4.004127,1.2640038,-1.0006001,-2.0838141,0.8211556,-1.1247556,0.010332345,0.03590775,-0.5837929,0.81104237
244357860000000,4.377844,2.7052069,-1.5723916,-3.1161764,0.9034697,-1.1007792,0.025830029,0.034792203,-0.6087324,0.7921914
244357880000000,3.8683047,2.5563183,-0.94732714,-3.8930442,1.2246321,-0.9315695,0.042078145,0.029835835,-0.63896143,0.7675074
244357900000000,2.3836405,0.9952402,0.36439312,-3.679394,1.6155858,-0.6082691,0.062473472,0.022508034,-0.6654274,0.7435031
244357920000000,1.4966226,-2.5145006,1.4637611,-1.9996674,1.6015359,-0.21899518,0.07518723,0.01051508,-0.67890924,0.7302866
244357940000000,1.1935952,-5.8843174,1.3645535,1.0288498,1.3745996,-0.109650314,0.0847634,0.0022137144,-0.6691694,0.73825645
244357960000000,1.1449866,-4.461832,-0.5175158,4.275904,1.6743816,-0.09865474,0.09645924,-0.0055207447,-0.63335,0.7678105
244357980000000,1.958345,-2.2885838,-2.7463393,5.283068,1.8156443,-0.29825497,0.110578105,-0.012627823,-0.5882238,0.80100304
244358000000000,2.5849931,-2.2036724,-3.329231,4.116468,1.6917913,-0.8040514,0.12747325,-0.016509157,-0.55303764,0.82318133
244358020000000,1.4764134,-4.6427784,-0.7888937,2.7795897,1.7195857,-1.2458596,0.14790711,-0.020287273,-0.5291214,0.8353098
244358040000000,0.7234099,-5.907654,0.59983826,2.807384,1.5338826,-1.4801265,0.1690417,-0.020944575,-0.5042265,0.8466062
244358060000000,2.3453515,-6.0133667,0.39328718,3.438255,1.4482088,-1.6694947,0.19082667,-0.018783964,-0.4724574,0.860242
244358080000000,2.2156687,-6.3609776,0.23462343,4.225966,1.3142766,-2.1777346,0.21653327,-0.011394577,-0.43340075,0.87472713
244358100000000,1.451433,-4.6700425,-0.6614919,5.1860933,1.3107641,-2.2713497,0.24245793,-0.0012880826,-0.384258,0.89081883
244358120000000,2.23248,-3.9128785,-1.4989057,5.3081136,1.1456778,-2.276084,0.26653838,0.0101656215,-0.33298296,0.9044205
244358140000000,2.7098844,-4.5696597,-1.3074279,4.598899,0.9805914,-2.492483,0.2914842,0.021938767,-0.2888641,0.9116541
244358160000000,1.6877108,-5.536086,-1.349792,4.5072694,0.9447031,-2.4678955,0.31530288,0.033503734,-0.24491711,0.9162299
244358180000000,0.6107092,-5.441185,-1.5248537,4.8209486,0.95340794,-2.3591616,0.33689287,0.04570132,-0.19670022,0.9196324
244358200000000,-1.1359895,-5.6170588,-1.7355824,4.882493,0.874759,-2.2650883,0.35662854,0.058311604,-0.14759305,0.92066944
244358220000000,-2.9570413,-5.987869,-2.2174816,4.9171596,0.70417494,-1.9663752,0.3709549,0.07010072,-0.101087645,0.9204671
244358240000000,-3.2829275,-4.6493063,-2.7559295,4.6523495,0.7151705,-1.6417004,0.38276315,0.08213689,-0.05449564,0.9185729
244358260000000,-3.52917,-4.141505,-3.4968657,4.13907,0.59971696,-1.2738068,0.39081824,0.09271652,-0.0138054285,0.91568244
244358280000000,-4.284624,-3.3641331,-4.021992,3.7890444,0.699288,-0.9297369,0.39532432,0.10076085,0.023975737,0.9126834
244358300000000,-5.95788,-2.1543481,-4.1726484,3.4712417,0.77595156,-0.5488624,0.39625162,0.10679187,0.059083823,0.9099941
244358320000000,-6.947669,-0.90413773,-3.2659864,3.035084,0.77320266,-0.1788308,0.39383185,0.11118065,0.089827314,0.9080013
244358340000000,0.0,0.0,0.0,2.4657576,0.71883565,0.03604105,0.39791632,0.08320975,0.12511368,0.9050334
244358360000000,-6.1675115,-1.5504589,-2.4315124,1.9546161,0.80848014,0.1328632,0.40780002,0.029252123,0.16162056,0.89817715
244358380000000,-4.869933,-0.5085015,-2.7148142,1.4138476,0.838718,0.2275473,0.4087376,-0.025633547,0.20832954,0.88818645
244358400000000,-3.8056645,-0.36218452,-3.3054075,0.53969944,0.8153524,0.2958115,0.40439,-0.030269781,0.2161232,0.8881686
244358420000000,-2.8935816,0.59519625,-2.884862,-0.12782355,0.84467393,0.26893342,0.40005186,-0.038191926,0.21804604,0.889357
244358440000000,-2.275657,1.2630363,-1.9670339,-0.50854534,0.8735373,0.3388775,0.37572366,-0.065228224,0.24532254,0.89128774
244358460000000,-1.6207538,1.0894074,-1.6901665,-0.80557853,0.9627236,0.44883323,0.36060274,-0.0824723,0.2534515,0.89382684
244358480000000,-1.1258638,0.73702955,-1.1273603,-0.79427755,1.0943651,0.6889033,0.34521738,-0.09897815,0.25966504,0.8964388
244358500000000,-0.28149867,0.0969286,-0.013716698,-0.23976462,1.1720977,0.81397796,0.33438188,-0.10816309,0.26238123,0.8986911
244358520000000,-0.067374706,0.52148056,0.79886436,0.6478226,1.0914634,0.7464773,0.3255508,-0.11373265,0.27318192,0.8980275
244358540000000,0.9379592,-0.46106148,0.800127,1.267698,0.79198676,0.62796944,0.3192767,-0.11337503,0.2872229,0.8959418
244358560000000,1.7031884,-1.1975574,0.13240433,1.289842,0.44776422,0.19685133,0.31791478,-0.112358704,0.30049747,0.8921922
244358580000000,1.0336328,0.49360704,-0.14037418,1.0059423,0.16997325,-0.07498371,0.3183704,-0.11034838,0.3099777,0.88903177
244358600000000,1.0168412,-0.059974194,-0.61895037,0.7414377,0.03268129,-0.05757405,0.3196035,-0.10825823,0.3162423,0.88663673
244358620000000,0.87979007,0.30951405,0.010686398,0.57711494,0.04520403,-0.10827587,0.3207929,-0.10720028,0.3213215,0.884507
244358640000000,0.72302604,-0.02300644,0.3340497,0.5749769,-0.027183503,-0.05879578,0.32191777,-0.105158724,0.32600287,0.88262826
244358660000000,0.54161906,0.35108852,0.69212866,0.732122,-0.051618114,-0.10705414,0.323798,-0.102719314,0.33233556,0.8798617
244358680000000,0.20284629,-0.028159618,-0.9213958,0.6356053,-0.1947133,-0.093462385,0.32595778,-0.09911366,0.33719766,0.87762505
244358700000000,0.46575165,0.5407009,-0.67064714,0.37125334,-0.08155051,-0.27977628,0.3289255,-0.09816495,0.33987334,0.87559
244358720000000,0.297534,1.0085382,0.8332405,0.14553864,-0.13744467,-0.31703907,0.33231544,-0.09777356,0.34016964,0.87423766
244358740000000,0.4791844,0.72159624,2.410954,0.24984388,-0.21945333,-0.43157628,0.3370039,-0.096384026,0.34096295,0.8722861
244358760000000,0.02311039,2.1756692,4.204488,0.75793105,-0.4008803,-0.505491,0.34374404,-0.09211828,0.34582394,0.8681936
244358780000000,-0.154598,2.341959,4.0515695,1.2964088,-0.647059,-0.4251622,0.35085663,-0.08311846,0.35467216,0.8626694
244358800000000,-0.23550606,2.7386036,4.269181,1.6911805,-0.6626361,-0.26557365,0.35683864,-0.07209493,0.36691958,0.8560599
244358820000000,0.37448955,3.749813,5.451868,1.8174769,-0.6207918,0.0053450707,0.36018518,-0.06017267,0.38038808,0.8496769
244358840000000,1.1076531,4.12548,6.8053594,1.9210185,-0.66950834,0.32696563,0.3608784,-0.046286598,0.3942866,0.8438972
244358860000000,0.0,0.0,0.0,0.0,0.0,0.0,0.3595158,-0.028965168,0.41051483,0.83748853
244358880000000,1.107779,4.6926723,5.641274,0.0,0.0,0.0,0.35480282,-0.0091149025,0.42782733,0.8312615
244358900000000,0.2922287,4.802711,5.7798667,2.3331997,-0.6426302,1.3381003,0.34633103,0.010219871,0.44483393,0.82587725
244358920000000,-0.23327637,4.8408666,6.0637665,2.3495405,-0.53985214,1.6621643,0.3344096,0.030108519,0.46189693,0.8209233
244358940000000,-0.36436796,4.416629,4.4322495,2.34221,-0.45952338,2.0069978,0.31904033,0.051116828,0.4787518,0.8163314
244358960000000,-0.49638903,3.5771341,3.1808414,2.1024454,-0.24633141,2.4061983,0.29916692,0.071263365,0.49358675,0.81350654
244358980000000,-1.0318514,2.0099049,2.515849,1.7066047,-0.09773844,2.7585146,0.27557003,0.090720706,0.5047178,0.81307495
244359000000000,-1.8100964,0.19480133,2.1758804,1.5018122,0.016035212,2.9378037,0.25011337,0.109373346,0.5136322,0.8134267
244359020000000,-2.2651172,-1.3731585,2.019229,1.7347046,0.12629639,2.999501,0.23393112,0.12521298,0.5189332,0.8125924
244359040000000,-2.3180447,-2.9215155,1.3437052,2.0282254,0.24358252,3.013551,0.2056909,0.14350584,0.53195965,0.80877465
244359060000000,-1.8290681,-4.923662,0.4663248,2.195755,0.52290064,3.1227431,0.1744568,0.16021076,0.5459569,0.80363446
244359080000000,-1.2782547,-6.587902,0.8964181,2.2568417,0.8707884,3.0473013,0.14144802,0.17359877,0.5600572,0.7976165
244359100000000,-1.5712295,-5.8308897,2.1229913,2.8162415,1.1779009,2.8661797,0.107175976,0.18370432,0.5785995,0.7873936
244359120000000,-0.9804852,-4.549924,1.6470264,3.3362405,1.3051136,2.7101038,0.072214544,0.19224994,0.60106754,0.7723618
244359140000000,-1.0563734,-4.633669,0.82977617,3.3425019,1.5662584,2.682004,0.035862237,0.19849531,0.6222375,0.75639546
244359160000000,-1.776323,-3.1884165,0.9213626,2.9666672,2.0299053,2.756224,0.0036076738,-0.20097713,-0.63923734,-0.7422741
244359180000000,-2.1168005,-1.6203828,1.8186393,2.368019,2.368172,2.849381,0.044568896,-0.20113102,-0.6498535,-0.73160803
244359200000000,-2.0201814,-0.16991615,2.4942987,2.2018638,2.5685356,2.8932104,0.07790033,-0.19872236,-0.6523568,-0.7272357
244359220000000,-2.7928238,0.07701397,2.46041,2.3357959,2.641992,3.0457742,0.085344926,-0.19104575,-0.6413423,-0.738172
244359240000000,-3.823786,-0.4988842,2.2947211,2.303573,2.7785206,3.2151365,0.13117881,-0.18902738,-0.6490995,-0.72507286
244359260000000,0.0,0.0,0.0,1.9281962,2.9578094,3.280041,0.17746651,-0.1860103,-0.6520075,-0.7132966
244359280000000,-4.5457115,-0.08283806,2.9604843,1.5383114,3.015078,3.3617442,0.223207,-0.18339431,-0.6501163,-0.702776
244359300000000,-5.5414915,-0.14130783,2.7517161,1.1852313,3.0387492,3.5271358,0.26939043,-0.18221511,-0.6442823,-0.69218993
244359320000000,-6.4939685,-0.7349081,3.0631928,0.68737614,3.14336,3.7565157,0.31631696,-0.18266757,-0.63266,-0.6828745
244359340000000,-6.7799067,-1.7656474,3.4098136,0.15363261,3.12595,3.9214494,0.3625151,-0.18554474,-0.6154796,-0.6747895
244359360000000,-6.910486,-2.0035954,2.98278,-0.26710084,3.020576,3.9697077,0.40648377,-0.19050933,-0.5943177,-0.66728085
244359380000000,-7.71386,-1.079279,2.275563,-0.70906186,2.9077187,4.0317106,0.4484517,-0.19772819,-0.56916773,-0.6601839
244359400000000,-8.796709,-1.4831867,2.4495041,-1.1809553,2.845105,4.179082,0.48906964,-0.20792077,-0.53918016,-0.65334886
244359420000000,-8.640198,-2.9099922,2.3569016,-1.6714801,2.7000244,4.2844563,0.5273505,-0.22142008,-0.50508255,-0.64634836
244359440000000,-7.6194544,-4.039652,2.0472488,-2.2327125,2.4107797,4.1218133,0.5602576,-0.23831071,-0.46787193,-0.6406367
244359460000000,0.0,0.0,0.0,0.0,0.0,0.0,0.5862116,-0.2581073,-0.4295133,-0.63659644
244359480000000,-8.792982,-2.736607,2.9407744,0.0,0.0,0.0,0.6096908,-0.27843955,-0.3927361,-0.6296881
244359500000000,-8.414139,-3.974397,2.9400363,-2.0065396,1.3266466,3.7749946,0.6328052,-0.29665202,-0.3599096,-0.61807793
244359520000000,-8.282708,-3.0885224,1.4054556,-1.1389582,0.99021256,3.6766453,0.6551866,-0.31048828,-0.3356546,-0.6013847
244359540000000,-9.330328,-2.7501535,0.18736744,0.06352998,0.8396343,3.7453675,0.6802869,-0.3170466,-0.3189473,-0.5787606
244359560000000,-9.344689,-3.984209,-0.92163897,1.4172074,0.9799806,3.7441459,0.7093105,-0.31283072,-0.30862316,-0.551151
244359580000000,-8.682563,-5.3095007,-1.5753598,2.503784,1.2695307,3.5393531,0.7402489,-0.29793665,-0.3022134,-0.52147144
244359600000000,-8.844226,-5.387378,-1.2251205,3.1189253,1.4388931,3.1403055,0.7929591,-0.28511673,-0.24605453,-0.47893795
244359620000000,-8.474377,-6.152849,-0.971591,3.2969925,1.4407257,2.4836254,0.8174919,-0.25784883,-0.24210383,-0.45454025
244359640000000,-7.2492223,-6.2162175,-3.228611,3.1984904,1.4651603,1.6846136,0.84827256,-0.2510334,-0.20195968,-0.42027143
244359660000000,-6.181198,-4.9057636,-5.7218227,3.249345,2.0566306,1.0454959,0.8640238,-0.21691214,-0.1953609,-0.41017833
244359680000000,-5.474556,-2.9662645,-7.064603,3.3527339,2.9659035,0.9266826,0.87996083,-0.17712982,-0.18073268,-0.40203196
244359700000000,-5.5199065,-3.5460548,-9.578828,2.3440428,3.7878227,0.903317,0.893961,-0.1423654,-0.15463495,-0.3957951
244359720000000,-7.1798778,-3.0136971,-11.907005,-0.90194255,4.7051897,0.5235115,0.9009487,-0.13329364,-0.10709359,-0.39881724
244359740000000,-10.576857,-0.6390996,-9.635939,-4.2245913,5.2902455,0.46670106,0.9006892,-0.15249395,-0.03808932,-0.40503561
244359760000000,-12.745019,0.5766556,-7.0007763,-5.0129128,4.662887,1.5519031,0.89851093,-0.18070987,0.027722333,-0.3990658
244359780000000,-9.241152,-1.0384212,-8.326539,-3.9837577,4.4200683,2.8021915,0.9001055,-0.19747664,0.088327415,-0.37816846
244359800000000,-9.722039,-2.9741654,-7.3428535,-2.9541442,4.756044,2.893516,0.89948606,-0.20256814,0.14822125,-0.35766125
244359820000000,-13.3150015,-5.064844,-4.3162694,-0.7348709,4.864778,2.807842,0.8992439,-0.18685058,0.20030661,-0.34106404
244359840000000,-12.116375,-5.864277,-3.5872607,2.479502,4.953659,2.7299569,0.9018125,-0.14018418,0.24047045,-0.33053988
244359860000000,-7.2649074,-5.057104,-4.421495,5.015509,5.2311444,2.3722951,0.9015753,-0.06940328,0.27317676,-0.32820675
244359880000000,-6.39195,-6.664011,-4.2981043,6.3586493,5.266422,1.3660474,0.89270896,0.010049063,0.29977974,-0.3363061
244359900000000,-12.135778,-9.449772,-2.2744088,7.71141,5.171585,0.24694228,0.87286794,0.096479855,0.31897202,-0.356441
244359920000000,-13.376859,-6.399932,-4.102326,9.457416,5.4663277,0.062155537,0.84093076,0.19885004,0.330416,-0.37963068
244359940000000,-11.538254,-0.24299717,-4.542904,9.641133,5.2681017,-0.42012256,0.79725146,0.2984424,0.33720595,-0.4020128
244359960000000,-11.647726,2.97315,-2.688245,8.007833,4.1187587,-1.6288722,0.74972135,0.37111777,0.34162885,-0.42834488
244359980000000,0.0,0.0,0.0,6.3163466,3.1645875,-2.4368942,0.703688,0.42070547,0.34667453,-0.45568278
244360000000000,-10.275184,4.8340435,-0.5865638,4.6825876,2.7678304,-2.947425,0.6600992,0.45425466,0.3569273,-0.48013002
244360020000000,-9.497173,4.184478,-0.39941978,2.718045,2.3704627,-3.3243287,0.6119042,0.4780673,0.36216035,-0.5156207
244360040000000,-10.929523,3.9001513,-0.55753255,1.5952746,2.2366831,-3.3312008,0.57936645,0.4855042,0.38375565,-0.53042614
244360060000000,-12.161265,5.4584756,-0.64027977,1.2284501,2.6510024,-3.2603405,0.53732455,0.49994487,0.3993329,-0.54942757
244360080000000,-10.427175,5.475627,0.78984606,0.93034774,2.2586741,-3.058144,0.5066496,0.5046418,0.42143485,-0.5577056
244360100000000,-8.031273,5.7578106,0.35413998,0.8907942,2.0447187,-2.6702447,0.47321895,0.513312,0.4332414,-0.5699794
244360120000000,-4.880227,6.1812253,-1.9068528,1.1505647,1.9587394,-2.6326766,0.44366956,0.5186274,0.44899106,-0.5767062
244360140000000,-0.25981522,8.618309,-2.0377884,1.3020593,1.4895949,-2.5289822,0.41217345,0.52398425,0.45697275,-0.58883744
244360160000000,3.5529485,9.033843,0.38503543,2.0803015,1.6158913,-1.7814357,0.39181206,0.54177415,0.45013902,-0.5918943
244360180000000,4.9588246,6.625185,1.1145583,3.8484511,1.895973,-0.56184334,0.35876986,0.5659705,0.4362451,-0.600543
244360200000000,3.8338408,5.950014,-1.2367315,4.937013,2.0491474,0.3352123,0.3230629,0.5977496,0.40988177,-0.6085416
244360220000000,2.7151093,6.2631183,-2.131917,4.408004,1.733941,0.9060659,0.3013499,0.635325,0.3748074,-0.6042101
244360240000000,3.906496,4.1085434,-1.6984748,3.161533,1.0221303,1.099252,0.28498328,0.65440404,0.35176176,-0.60564315
244360260000000,5.2951097,0.65471435,-0.861362,2.7403414,0.6924158,1.1725558,0.27496684,0.668209,0.33260506,-0.6060231
244360280000000,4.9569016,-0.5011821,-0.36446774,3.2791247,0.92072666,1.1523973,0.2569407,0.6861963,0.30748597,-0.6070985
244360300000000,2.7225313,0.70559704,-0.3184228,3.8383718,1.135293,1.0619892,0.23263179,0.7059102,0.2793023,-0.6079173
244360320000000,0.97270393,1.444338,-0.84870946,3.3360877,0.8350528,1.1336132,0.21347792,0.72195435,0.25238994,-0.607872
244360340000000,1.0271626,0.27256873,-0.5853374,2.1894937,0.3408628,1.0525209,0.20385595,0.7307521,0.23244733,-0.6086151
244360360000000,1.2515059,-1.2397126,0.09231782,1.3341297,0.094989546,0.78542,0.19933613,0.735315,0.21946193,-0.609437
244360380000000,0.5534363,-1.660068,0.20114958,1.2044735,0.06994407,0.61590487,0.19332223,0.738922,0.20925286,-0.6106015
244360400000000,-0.28843212,-1.2190127,-0.0735662,1.144456,0.01786781,0.5656612,0.1875325,0.74230385,0.19862723,-0.6118527
244360420000000,-0.031690598,-0.8213867,-1.2639922,0.7651087,-0.18402316,0.49648073,0.18390366,0.744701,0.19134754,-0.61236095
244360440000000,0.8058338,-1.4644681,-1.2178129,0.24510968,-0.38087448,0.33948836,0.18346126,0.74407864,0.18843308,-0.6141514
244360460000000,0.94104767,-1.5643833,0.30451667,0.28863382,-0.28191432,0.14523321,0.18303278,0.7429701,0.1855961,-0.61648077
244360480000000,0.5570011,-0.787151,-0.14314866,1.0199922,-0.22937989,-0.0067195175,0.17535596,0.7434995,0.1788151,-0.6200678
244360500000000,-0.016474724,1.0811692,-1.7209188,1.525636,-0.21471913,-0.01817324,0.16396907,0.7454738,0.16861388,-0.6236604
244360520000000,-0.7810488,0.73405796,-1.6676446,0.0,0.0,0.0,0.15212569,0.7472468,0.15563518,-0.6278994
244360540000000,-2.251646,-0.86635435,-0.24811149,2.001042,-0.070554934,0.49128836,0.14049105,0.7505359,0.13921928,-0.6305365
244360560000000,-3.3768044,-2.1928723,-0.33820105,2.6369526,-0.13729197,0.77213365,0.12558445,0.75430435,0.116233595,-0.6338324
244360580000000,0.0,0.0,0.0,2.9043589,-0.24144448,0.752586,1.0,0.0,0.0,0.0
244360600000000,-1.971633,-1.0700126,-1.4611713,2.695443,-0.0364992,0.6010914,0.09166657,0.75989443,0.06948628,-0.6397886
244360620000000,-3.1510067,-0.1601394,-1.925558,2.2096524,0.16752979,0.31703907,0.0770524,0.7631195,0.053726193,-0.6393942
244360640000000,-4.1015787,-0.8528929,-2.0157332,2.304031,0.20204368,0.36774087,0.061755434,0.7662572,0.03669855,-0.6385055
244360660000000,-3.3576412,-1.7082559,-1.6144006,2.3953552,0.12614368,0.42439863,0.045932297,0.7684208,0.017984014,-0.63804096
244360680000000,-2.7148829,-0.70261157,-1.5272564,2.110692,0.2764165,0.3565926,0.031866357,0.77108246,0.0018492115,-0.6359348
244360700000000,0.0,0.0,0.0,1.3542882,0.3724751,0.29138273,0.023460206,0.7739172,-0.0086098295,-0.63279366
244360720000000,-2.8977222,-0.11629146,-2.2267303,0.069791354,0.32834008,0.18341228,0.024579339,0.77599937,-0.010025723,-0.6301748
244360740000000,-3.1781101,-0.7862526,-2.5101829,-1.0128145,0.31780264,0.08445212,0.033744242,0.7776854,-0.0033280156,-0.6277386
244360760000000,-2.3179083,-0.93286455,-0.9130845,-1.2748758,0.31123585,0.17455475,0.0452116,0.7791017,0.0038476028,-0.6252534
244360780000000,-2.3148594,-1.2035043,-0.15364528,-1.2861768,0.42714754,0.1656972,0.05629889,0.78107107,0.010730252,-0.62180656
244360800000000,-3.3185482,-1.4194767,0.63744044,-1.0445796,0.5209153,0.094225965,0.06491236,0.78379035,0.01698586,-0.6173901
244360820000000,-2.8294506,-1.7497239,0.8789238,-0.4531093,0.45188758,0.15225816,0.06900317,0.7862374,0.018704895,-0.6137748
