timestamp,accel_x,accel_y,accel_z,gyro_x,gyro_y,gyro_z,rot_w,rot_x,rot_y,rot_z
3557760000000,0.049928665,-0.06282592,-0.06281328,0.043982297,0.0012217305,-0.014660766,1.0,0.0,0.0,0.0
3557780000000,0.07590675,-0.03846383,-0.12813473,0.053145275,0.0013744468,-0.014966198,0.28265393,0.52797407,0.404076,-0.69142807
3557800000000,0.06271839,-0.010406733,-0.20899963,0.0,0.0,0.0,0.28225577,0.52810097,0.40376467,-0.6916756
3557820000000,0.0,0.0,0.0,0.05955936,0.0050396384,-0.0033597588,0.28186628,0.5282839,0.40340132,-0.6919067
3557840000000,0.015177727,0.011998892,-0.30404973,0.052534413,0.008399397,0.0047342055,0.281544,0.52850115,0.40302545,-0.6920911
3557860000000,0.03550625,-0.009483814,-0.31148374,0.03940081,0.013439035,0.011453724,0.2813145,0.52875745,0.40269914,-0.69217855
3557880000000,0.044490814,-0.049131155,-0.33748198,0.02977968,0.017104227,0.014202617,0.28117076,0.5290129,0.40247083,-0.6921746
3557900000000,0.035182953,-0.08451724,-0.33712792,0.030695979,0.020922136,0.013286319,0.2810326,0.5292963,0.40226498,-0.6921337
3557920000000,0.0388937,-0.10584116,-0.31009626,0.036957346,0.023823744,0.009468411,1.0,0.0,0.0,0.0
3557940000000,0.026815414,-0.08042526,-0.31762797,0.035277467,0.024892759,0.0032070426,0.2805825,0.5299177,0.40184522,-0.6920846
3557960000000,0.027433395,-0.036172867,-0.30289465,0.02275473,0.025350908,-0.0041233404,0.28031832,0.5301774,0.40172526,-0.6920625
3557980000000,0.03257656,-0.019214392,-0.25819314,0.013439035,0.028710667,-0.009162978,0.2800675,0.5303888,0.4017432,-0.6919916
3558000000000,0.0,0.0,0.0,0.0,0.0,0.0,0.27981573,0.53058547,0.40181145,-0.69190305
3558020000000,-0.034635544,0.016565323,-0.18842739,0.004581489,0.022602014,-0.003970624,0.27960986,0.530774,0.401854,-0.69181705
3558040000000,-0.0060606003,0.03653121,-0.17143834,-0.012064588,0.01572978,-0.0012217305,0.2795429,0.53088754,0.40194634,-0.69170326
3558060000000,-0.02284336,0.029564857,-0.14532852,-0.025503624,0.011148291,0.0010690142,0.27960184,0.53092873,0.40214062,-0.6915349
3558080000000,-0.018885612,0.04262662,-0.10542405,-0.027794369,0.00030543262,0.0022907446,0.2797548,0.5308929,0.40235996,-0.6913728
3558100000000,0.033186913,0.042963028,-0.08506501,-0.023060163,-0.00015271631,0.003970624,0.27992612,0.53081936,0.4025128,-0.6912711
3558120000000,0.023292542,0.033606052,-0.109268665,-0.019242255,-0.0025961774,0.005192355,0.28006876,0.53078157,0.40264153,-0.6911674
3558140000000,-0.017741203,0.014097929,-0.13178372,0.0,0.0,0.0,0.28023458,0.53072506,0.40270868,-0.69110435
3558160000000,0.03452301,-0.006051302,-0.11174977,-0.020158553,-0.013286319,0.0125227375,0.28046492,0.53063965,0.4027372,-0.69105995
3558180000000,0.018573761,-0.01883936,-0.12098336,-0.027794369,-0.017562376,0.013744468,0.2807407,0.5305267,0.40279543,-0.6910007
3558200000000,0.06359577,-0.068007946,-0.17067122,-0.032070424,-0.02076942,0.014049901,0.2810914,0.5303564,0.40289578,-0.69093037
3558220000000,0.06807423,-0.1079514,-0.18833923,-0.025503624,-0.01985312,0.011148291,0.2814167,0.53017944,0.40298632,-0.69088095
3558240000000,0.060839653,-0.11148548,-0.19411284,-0.014202617,-0.01786781,0.008246681,0.28165647,0.5300412,0.4030296,-0.6908641
3558260000000,0.07862759,-0.12085557,-0.21192813,-0.007788532,-0.016646078,0.005497787,0.2818096,0.529929,0.40302467,-0.69089067
3558280000000,0.10314083,-0.121298075,-0.23585963,-0.0053450707,-0.011301007,0.0012217305,0.28193134,0.52981883,0.40302607,-0.6909246
3558300000000,0.04117012,-0.13240767,-0.24261099,-0.0032070426,-0.007941248,-0.0016798794,0.2819686,0.5297575,0.40305492,-0.69093955
3558320000000,0.05199051,-0.1300168,-0.22821009,0.003970624,-0.009010263,-0.0022907446,0.28198442,0.52968764,0.40306205,-0.69098246
3558340000000,0.09307766,-0.089934826,-0.24498451,0.0070249503,-0.00076358154,-0.007330383,0.2819383,0.52965915,0.40302697,-0.69104356
3558360000000,0.089250565,-0.04936242,-0.23042154,0.0012217305,0.0033597588,-0.0125227375,0.28181967,0.529655,0.40307876,-0.69106513
3558380000000,0.06603336,-0.033721685,-0.21651876,-0.0018325958,0.0012217305,-0.012675454,0.2817225,0.529616,0.40317726,-0.691077
3558400000000,0.04553604,-0.02636695,-0.19133174,0.0050396384,0.0053450707,-0.010079277,0.281632,0.529593,0.4032475,-0.6910905
3558420000000,0.0040664673,-0.011082411,-0.17101794,0.008552114,0.009010263,-0.0061086523,0.2814893,0.52964926,0.4032627,-0.6910968
3558440000000,0.024339676,0.012134075,-0.15567476,0.0025961774,0.0061086523,-0.0012217305,0.28139323,0.52972496,0.40326214,-0.6910781
3558460000000,0.046941757,0.009536743,-0.15783232,-0.004276057,0.005497787,0.0018325958,0.28138974,0.5297613,0.40328956,-0.6910357
3558480000000,0.049967766,-0.037573576,-0.13594949,0.0010690142,0.0076358155,0.0030543262,0.28140154,0.5298052,0.40333387,-0.6909714
3558500000000,0.048223495,-0.07194972,-0.12442964,0.0154243475,0.009162978,0.0021380284,0.28134346,0.5299011,0.40329695,-0.69094306
3558520000000,0.07483864,-0.06974125,-0.13449681,0.028710667,0.010537425,0.0018325958,0.2811978,0.530038,0.4031687,-0.6909722
3558540000000,0.06932354,-0.073844194,-0.15417564,0.03894266,0.013286319,0.0013744468,0.28097144,0.53023297,0.40296242,-0.69103503
3558560000000,0.047922134,-0.09402037,-0.15719283,0.049938235,0.015577064,0.0047342055,0.28068817,0.5304683,0.4026933,-0.6911264
3558580000000,0.058667183,-0.084148884,-0.1801331,0.05467244,0.015118915,0.0067195175,0.28037095,0.5307584,0.40234,-0.69123816
3558600000000,0.08729267,-0.110236645,-0.18849903,0.05299256,0.016187929,0.007330383,0.2800696,0.5310526,0.40197822,-0.691345
3558620000000,0.07635689,-0.09961629,-0.19760078,0.050549097,0.01740966,0.0036651916,0.27976134,0.5313426,0.4016487,-0.6914383
3558640000000,0.10669422,-0.095324755,-0.22194839,0.04810564,0.015271631,-0.0018325958,0.2794408,0.531598,0.4013631,-0.6915375
3558660000000,0.124967575,-0.093244314,-0.2364713,0.04260785,0.01572978,-0.010079277,0.2790856,0.5318091,0.4011294,-0.6916542
3558680000000,0.07747555,-0.10462117,-0.26530695,0.033292156,0.014049901,-0.018784106,0.2787209,0.5319617,0.4010145,-0.6917505
3558700000000,0.040278435,-0.070576906,-0.2900923,0.022602014,0.010842858,-0.022602014,0.27835953,0.53205556,0.40098244,-0.69184244
3558720000000,0.046676636,-0.03020072,-0.29252404,0.006872234,0.009315695,-0.024129177,0.27807313,0.5320716,0.4010491,-0.69190663
3558740000000,0.058582306,-0.013308287,-0.29837894,-0.0021380284,0.015882496,-0.025198191,0.2778522,0.5320655,0.40122625,-0.6918974
3558760000000,0.036504745,-0.004304409,-0.2924304,-0.00076358154,0.022296581,-0.023823744,0.2776156,0.5321018,0.40145332,-0.69183266
3558780000000,0.03679371,0.028449774,-0.2647035,-0.00030543262,0.032070424,-0.02076942,0.27734154,0.5322129,0.4016521,-0.6917418
3558800000000,0.0066871643,0.05011034,-0.24082267,-0.0022907446,0.03573562,-0.0143553335,0.2770826,0.53240144,0.4018715,-0.6915731
3558820000000,0.019680977,0.06510091,-0.17443657,-0.005192355,0.030695979,-0.005497787,0.2769006,0.53258973,0.40205047,-0.6913969
3558840000000,0.071367264,0.05930996,-0.1638974,-0.0065668016,0.032986723,-0.001985312,0.27680388,0.53277564,0.40219757,-0.69120693
3558860000000,0.07485199,0.01714921,-0.20155513,-0.009315695,0.034513887,-0.0035124752,0.27667916,0.5329953,0.4023658,-0.6909895
3558880000000,0.06211281,0.001973629,-0.1518954,-0.0061086523,0.030543262,-0.0009162979,0.2765932,0.5331802,0.40255362,-0.6907719
3558900000000,0.054611206,0.024086237,-0.120302975,0.00061086525,0.03191771,0.0027488936,0.27649266,0.53338766,0.402652,-0.6905946
3558920000000,0.042625427,-0.015234947,-0.11274797,0.00015271631,0.031306844,0.004581489,0.27638873,0.53363377,0.4027191,-0.6904068
3558940000000,0.0067396164,-0.048361063,-0.14929259,-0.005955936,0.023365596,0.0047342055,0.27631614,0.5338461,0.4027988,-0.69022536
3558960000000,0.018158913,-0.06869984,-0.15579563,-0.01160644,0.013439035,0.00290161,0.2763342,0.53395253,0.40291634,-0.6900671
3558980000000,0.054699898,-0.12230539,-0.15588021,0.0030543262,0.0143553335,-0.010231993,0.27626732,0.53404456,0.40318772,-0.68986416
3559000000000,0.03236103,-0.096874714,-0.17883283,0.0125227375,0.01450805,-0.012370021,0.27606177,0.53413105,0.40323478,-0.6898519
3559020000000,0.026709557,-0.10595107,-0.19668603,0.01450805,0.01450805,-0.012217305,0.27582434,0.53422594,0.40325877,-0.68985945
3559040000000,0.10781479,-0.079247236,-0.18173188,0.016646078,0.016798794,-0.011911872,0.27559385,0.5343257,0.40326387,-0.6898713
3559060000000,0.08250427,-0.048789024,-0.19503081,0.016035212,0.020158553,-0.011911872,0.27533492,0.53446585,0.40326804,-0.6898636
3559080000000,0.083685875,-0.04967904,-0.21182215,0.010537425,0.016646078,-0.009468411,0.275104,0.53459287,0.40329883,-0.68983936
3559100000000,0.08174038,-0.045511723,-0.17846167,0.009010263,0.018784106,-0.008246681,0.2749395,0.5346966,0.40333486,-0.6898035
3559120000000,0.0676651,-0.06654072,-0.17633045,0.015577064,0.021533,-0.0076358155,0.27472758,0.5348425,0.4033767,-0.68975043
3559140000000,0.035640717,-0.05840993,-0.16964138,0.025350908,0.021685716,-0.00870483,0.2745008,0.53500605,0.40336198,-0.6897225
3559160000000,0.065078735,-0.024476767,-0.20342153,0.026725354,0.026725354,-0.013439035,0.27417272,0.5352157,0.40329307,-0.68973064
3559180000000,0.07256508,0.00022292137,-0.20709741,0.018936822,0.02611449,-0.0154243475,0.2738343,0.5354051,0.4033089,-0.68970877
3559200000000,0.044128418,-0.016027927,-0.17331237,0.019547688,0.027183503,-0.011148291,0.2735403,0.5355757,0.40335152,-0.68966806
3559220000000,0.065662384,-0.01198554,-0.1348927,0.024892759,0.030085113,-0.005955936,0.27326095,0.5358009,0.40333742,-0.6896122
3559240000000,0.022454262,0.0027623177,-0.1814118,0.010537425,0.02397646,-0.00290161,0.27300227,0.5360512,0.40328735,-0.6895494
3559260000000,0.03892231,0.0044283867,-0.2294535,-0.01817324,0.016493361,-0.0071776668,0.27294043,0.53615576,0.40342075,-0.6894145
3559280000000,0.072906494,-0.025380373,-0.22356313,-0.036957346,0.015118915,-0.014202617,0.2729764,0.53613096,0.40374562,-0.68922925
3559300000000,0.08866978,0.015838861,-0.21060473,-0.039858956,0.024892759,-0.020922136,0.27300954,0.536065,0.40419883,-0.68900174
3559320000000,0.06368542,0.021110058,-0.22172701,-0.039858956,0.03481932,-0.023518313,0.27292752,0.53608954,0.40469024,-0.6887267
3559340000000,0.046283722,0.030467987,-0.23983276,-0.050549097,0.03680463,-0.020616703,0.27287054,0.53613144,0.40523714,-0.6883949
3559360000000,0.028820992,0.033147097,-0.23769367,-0.066737026,0.035124753,-0.0143553335,0.2729184,0.53616256,0.4058457,-0.6879931
