timestamp,accel_x,accel_y,accel_z,gyro_x,gyro_y,gyro_z,rot_w,rot_x,rot_y,rot_z
264203660000000,0.0,0.0,0.0,0.0,0.0,0.0,0.6141601,-0.5169509,0.50267875,0.3207543
264203680000000,0.0,0.0,0.0,0.4352415,-0.15347989,-0.36346483,0.6183144,-0.51560533,0.5012328,0.31718177
264203700000000,0.103188515,0.39823508,-0.3622091,0.0,0.0,0.0,0.62253004,-0.5140537,0.5000685,0.31326798
264203720000000,0.0919714,0.506119,-0.4790397,0.0,0.0,0.0,0.6263043,-0.5130602,0.49856314,0.30975315
264203740000000,0.0,0.0,0.0,0.36193767,-0.116217114,-0.3643811,0.6309983,-0.5103836,0.49904191,0.30382043
264203760000000,0.0,0.0,0.0,0.35460728,-0.09590584,-0.34987307,0.634162,-0.50962114,0.49788365,0.3003944
264203780000000,-0.0057621,0.72556186,-0.7172385,0.0,0.0,0.0,0.6380074,-0.5072096,0.49860394,0.29509187
264203800000000,0.0,0.0,0.0,0.34666604,-0.06078109,-0.29260445,1.0,0.0,0.0,0.0
264203820000000,-0.026806831,0.9037323,-0.80129576,0.3239113,-0.03573562,-0.2603813,0.6419765,-0.50480026,0.49972728,0.28864452
264203840000000,0.009552002,0.9512975,-0.81172544,0.28328875,-0.025350908,-0.22708915,0.6430948,-0.5040526,0.5003139,0.28643692
264203860000000,0.040467262,1.0054202,-0.7885114,0.23182335,-0.0056505036,-0.19379699,0.6448482,-0.50199723,0.50234675,0.28251976
264203880000000,0.0,0.0,0.0,0.17333302,0.012675454,-0.16340645,0.6451217,-0.50169426,0.50309825,0.28109246
264203900000000,0.0059137344,1.039283,-0.7600132,0.111941054,0.025045475,-0.1330159,0.64575654,-0.5000361,0.50562495,0.2780395
264203920000000,0.037709236,1.0578051,-0.7212595,0.04932737,0.03924809,-0.10125092,0.64540625,-0.50028116,0.5061939,0.27737573
264203940000000,0.034254074,1.0520365,-0.63764834,-0.013897184,0.054367006,-0.06429356,1.0,0.0,0.0,0.0
264203960000000,0.046396255,1.0305934,-0.5424137,-0.06841691,0.071776666,-0.020005837,0.6444309,-0.5007457,0.5077126,0.27602652
264203980000000,0.015166283,0.98649955,-0.48334146,-0.11148291,0.088422745,0.02733622,1.0,0.0,0.0,0.0
264204000000000,0.0,0.0,0.0,-0.15225816,0.09972375,0.075594574,0.6420304,-0.5016568,0.5096828,0.276335
264204020000000,0.011810303,0.87557864,-0.33786765,-0.18967366,0.111941054,0.123242065,0.64061445,-0.5016321,0.5114493,0.27640185
264204040000000,0.013896942,0.79182005,-0.21701622,-0.20998493,0.12507465,0.16905695,0.63840765,-0.502444,0.5125562,0.27797827
264204060000000,0.0042791367,0.70025086,-0.11906308,-0.21685717,0.13209961,0.21594086,0.63615096,-0.5028248,0.5141452,0.27952445
264204080000000,-0.023085594,0.6015036,-0.049901903,-0.22067507,0.1375974,0.26251933,0.63358295,-0.5032358,0.5157442,0.28166348
264204100000000,-0.07377434,0.5127456,0.023360997,-0.22159137,0.1375974,0.30833423,0.6313058,-0.50264865,0.51830524,0.28312
264204120000000,-0.11741638,0.42774057,0.070549935,-0.23716843,0.12721269,0.34590244,0.62846726,-0.5026788,0.5201874,0.2859161
264204140000000,-0.13916779,0.3258164,0.14695022,-0.2585487,0.11499538,0.37598756,0.625642,-0.5023911,0.5223078,0.28873834
264204160000000,-0.1809454,0.17385864,0.21200454,-0.27382034,0.10308351,0.39752057,0.62257737,-0.50231016,0.52414453,0.29215506
264204180000000,-0.22518253,0.048407555,0.25491852,-0.2828306,0.091477074,0.408058,0.61949813,-0.50214016,0.5259734,0.29568443
264204200000000,-0.24999523,-0.085418224,0.29086077,0.0,0.0,0.0,0.6164588,-0.5020082,0.5275775,0.2993798
264204220000000,-0.16773033,-0.18943906,0.35849774,-0.3052799,0.042913284,0.39400807,0.61356837,-0.5018765,0.528934,0.30312172
264204240000000,-0.056041718,-0.298465,0.40658784,-0.31444287,0.016340645,0.36774087,0.61082107,-0.50190675,0.52987605,0.3069505
264204260000000,-0.04335022,-0.4018414,0.40268466,0.0,0.0,0.0,1.0,0.0,0.0,0.0
264204280000000,-0.0505085,-0.4894035,0.39149573,-0.29275718,-0.011911872,0.29520062,0.6060142,-0.5021308,0.53116775,0.31380323
264204300000000,-0.008634567,-0.5432682,0.3949149,-0.26190847,-0.035888333,0.26053402,0.6041315,-0.50219774,0.53141075,0.3168994
264204320000000,0.046495438,-0.5786736,0.36511737,-0.2275473,-0.050701816,0.226631,0.6026213,-0.5021849,0.53148234,0.31966296
264204340000000,0.05875492,-0.62955785,0.293499,-0.2012801,-0.061850104,0.19135354,0.60142094,-0.50213426,0.53143924,0.32206568
264204360000000,0.07888222,-0.652436,0.24824995,-0.18493946,-0.0777326,0.15454891,0.60047346,-0.50219184,0.53109384,0.32430595
264204380000000,0.11867237,-0.65231156,0.21822637,-0.17012598,-0.0870483,0.12034045,0.5997978,-0.50225914,0.53061944,0.326223
264204400000000,0.14345646,-0.6630249,0.16806388,-0.16279559,-0.09437868,0.087964594,0.5992631,-0.5024978,0.52990043,0.3280019
264204420000000,0.20029736,-0.6650076,0.08039552,-0.16737708,-0.10598512,0.061391957,0.5988655,-0.5028729,0.52896374,0.3296611
264204440000000,0.22010994,-0.65333986,0.057974756,-0.1788308,-0.11148291,0.03894266,0.59848386,-0.50342965,0.5278317,0.33131483
264204460000000,0.25297356,-0.6632688,0.042039454,-0.1873829,-0.10995574,0.017104227,0.5981629,-0.5040775,0.52665323,0.33278143
264204480000000,0.27718163,-0.6558056,0.007077813,-0.18906279,-0.1049161,-0.0038179078,0.59781504,-0.50493044,0.52532977,0.33420214
264204500000000,0.29225636,-0.66101146,-0.04007989,-0.18585575,-0.09789115,-0.02977968,0.59753275,-0.5059175,0.5239392,0.33539507
264204520000000,0.2783394,-0.6952195,-0.058899224,-0.17134771,-0.09010262,-0.056505036,0.59738183,-0.50701004,0.5224793,0.33629036
264204540000000,0.25766087,-0.6785507,-0.068804026,-0.14187345,-0.07422013,-0.08093964,0.5973846,-0.50808674,0.52110803,0.3367879
264204560000000,0.24228764,-0.5911579,-0.0757944,-0.1067487,-0.0580322,-0.103847094,1.0,0.0,0.0,0.0
264204580000000,0.20937061,-0.55073905,-0.0796445,-0.079870634,-0.043829583,-0.1255328,1.0,0.0,0.0,0.0
264204600000000,0.210289,-0.4874761,-0.07759637,-0.057268616,-0.031306844,-0.1479821,0.59820396,-0.5111332,0.5175321,0.3362372
264204620000000,0.14313984,-0.41137385,-0.07663715,-0.041080687,-0.009468411,-0.18478674,0.5986483,-0.51222754,0.5164069,0.3355104
264204640000000,0.0991478,-0.34211326,-0.07321435,-0.02855795,0.00030543262,-0.19746219,0.5991144,-0.51340926,0.51525927,0.33463538
264204660000000,0.064427376,-0.2764907,-0.03194034,-0.0035124752,0.012980887,-0.20448714,0.599643,-0.5145953,0.5141603,0.3335555
264204680000000,0.0,0.0,0.0,0.036193766,0.025961773,-0.20341812,0.60024923,-0.51570857,0.513174,0.33226204
264204700000000,0.03218746,-0.18209457,0.065207005,0.089186326,0.037110064,-0.19333886,0.6010121,-0.5165764,0.5124443,0.3306573
264204720000000,0.023785591,-0.14791489,0.099499285,0.15668693,0.04932737,-0.17531833,0.60193276,-0.5171394,0.5119719,0.32882926
264204740000000,0.0056295395,-0.08558035,0.16831696,0.22418754,0.056352317,-0.14813483,0.60310525,-0.51718694,0.51193637,0.32665437
264204760000000,0.0032644272,0.012781143,0.23288864,0.28084528,0.058643065,-0.11759156,0.60448337,-0.51673275,0.512263,0.3243051
264204780000000,0.017498016,0.101175785,0.25857282,0.3126103,0.060170226,-0.08750644,0.60605085,-0.5157489,0.51297444,0.32181156
264204800000000,0.024830818,0.17998767,0.28758267,0.32284227,0.059864793,-0.056963183,0.6076459,-0.5144547,0.51391006,0.3193734
264204820000000,-0.02440548,0.23769045,0.296435,0.31627548,0.054519724,-0.025961773,1.0,0.0,0.0,0.0
264204840000000,-0.052502632,0.28588057,0.29771146,0.2845105,0.039553523,0.0021380284,0.6106132,-0.51127684,0.51624304,0.31502473
264204860000000,-0.04595089,0.322572,0.33611974,0.23839016,0.027030786,0.022602014,0.61185956,-0.5096102,0.51741344,0.31338274
264204880000000,0.021680832,0.29064155,0.3225908,0.18829921,0.028863383,0.032375857,1.0,0.0,0.0,0.0
264204900000000,0.0345459,0.24126267,0.30378312,0.14049901,0.0062613687,0.039095376,0.61354876,-0.5068713,0.51936084,0.31129366
264204920000000,-0.017332077,0.18213153,0.27495855,0.0,0.0,0.0,0.61408854,-0.50583947,0.5200228,0.31080222
264204940000000,0.041152,0.13464189,0.30215374,0.09590584,-0.03573562,0.05589417,0.6146374,-0.50481755,0.52044463,0.31067282
264204960000000,0.032073975,0.041221857,0.24242038,0.0,0.0,0.0,0.6151355,-0.50382453,0.5207882,0.31072316
264204980000000,0.030015945,0.024919748,0.17013079,0.08032878,-0.06047566,0.065515295,0.6156732,-0.50274485,0.52114326,0.3108118
264205000000000,0.06609726,-0.01089406,0.12184134,0.07269296,-0.063682705,0.06337727,0.6161953,-0.50171506,0.521339,0.31111267
264205020000000,0.0,0.0,0.0,0.064599,-0.062002823,0.06078109,0.6167775,-0.50061077,0.5216057,0.31129086
264205040000000,0.10036945,-0.08117747,0.024756461,0.0580322,-0.06918049,0.058184914,0.6172329,-0.49970677,0.5217283,0.31163487
264205060000000,0.09163952,-0.11761427,-0.049538493,0.053450707,-0.07269296,0.052534413,0.61771876,-0.49880946,0.5217916,0.3120037
264205080000000,0.10938263,-0.11907959,-0.11647883,0.05085453,-0.071318515,0.044898596,0.61820227,-0.49798748,0.52176255,0.31240752
264205100000000,0.1323185,-0.16049743,-0.13263524,0.05177083,-0.062002823,0.03481932,0.61869526,-0.49721217,0.521711,0.31275228
264205120000000,0.14939499,-0.18897986,-0.15479371,0.0,0.0,0.0,0.6191651,-0.49652964,0.5216589,0.31299353
264205140000000,0.0,0.0,0.0,0.0,0.0,0.0,0.619648,-0.4958886,0.52168465,0.31301126
264205300000000,0.0,0.0,0.0,0.0,0.0,0.0,0.62257004,-0.49362814,0.52191716,0.31038758
264205320000000,0.0,0.0,0.0,0.0,0.0,0.0,0.6227852,-0.4935913,0.5221132,0.3096839
264205340000000,0.0,0.0,0.0,0.0,0.0,0.0,0.6229957,-0.49354124,0.52239436,0.3088649
264205380000000,0.0656662,-0.050949812,-0.05906266,0.0,0.0,0.0,1.0,0.0,0.0,0.0
264205560000000,0.0,0.0,0.0,-0.0030543262,-0.032070424,-0.034513887,0.6249582,-0.49530953,0.5223971,0.30198848
264205660000000,0.0,0.0,0.0,0.0,0.0,0.0,0.62551904,-0.4967047,0.5197049,0.30317867
264205680000000,0.0855093,0.039589405,-0.0696879,-0.062308256,-0.04841107,-0.0035124752,1.0,0.0,0.0,0.0
264205760000000,0.0,0.0,0.0,-0.12950343,-0.06872234,-0.0627664,1.0,0.0,0.0,0.0
264205920000000,0.0,0.0,0.0,-0.18768835,-0.0015271631,0.030390546,1.0,0.0,0.0,0.0
264205960000000,0.06808567,0.29049563,-0.24721289,0.0,0.0,0.0,0.6194399,-0.5098586,0.5087204,0.31231713
264205980000000,0.0,0.0,0.0,0.0,0.0,0.0,0.61782354,-0.51177764,0.50839156,0.3129149
264206000000000,0.0,0.0,0.0,0.0,0.0,0.0,0.6168066,-0.513446,0.5071574,0.31418815
264206020000000,0.0,0.0,0.0,-0.36713,0.05131268,-0.040317107,1.0,0.0,0.0,0.0
264206060000000,-0.4412918,0.8568392,-0.81555575,0.0,0.0,0.0,1.0,0.0,0.0,0.0
264206120000000,0.0,0.0,0.0,0.0,0.0,0.0,0.5627657,-0.53352165,0.5342394,0.33650815
264206140000000,-0.3915453,1.0530152,-1.8684101,0.0,0.0,0.0,1.0,0.0,0.0,0.0
264206220000000,0.49484348,-0.009641528,-2.3945389,0.0,0.0,0.0,0.50303596,-0.5770736,0.51990974,0.37899166
264206280000000,-0.41506577,0.22083914,-2.7551377,0.0,0.0,0.0,1.0,0.0,0.0,0.0
264206340000000,-1.3090649,-0.8315923,-1.4350827,0.0,0.0,0.0,1.0,0.0,0.0,0.0
264206400000000,0.0,0.0,0.0,-1.1091785,0.29520062,1.2428054,1.0,0.0,0.0,0.0
264206460000000,0.0,0.0,0.0,-0.72082096,1.1330023,0.5222898,1.0,0.0,0.0,0.0
264206520000000,0.0,0.0,0.0,0.16081028,0.9007208,0.65301496,1.0,0.0,0.0,0.0
264206560000000,0.0,0.0,0.0,0.7498371,0.5487097,0.45906523,1.0,0.0,0.0,0.0
264206680000000,-0.16369724,-4.602551,3.2717648,0.0,0.0,0.0,1.0,0.0,0.0,0.0
264206700000000,-0.24336147,-4.2550707,2.7321975,0.0,0.0,0.0,1.0,0.0,0.0,0.0
