timestamp,accel_x,accel_y,accel_z,gyro_x,gyro_y,gyro_z,rot_w,rot_x,rot_y,rot_z
244579940000000,1.0837011,1.0434206,2.5017474,0.0,0.0,0.0,1.0,0.0,0.0,0.0
244579960000000,1.0609531,0.74901986,2.791421,0.0,0.0,0.0,0.68172497,-0.34211302,0.61178726,0.20958576
244580000000000,0.0,0.0,0.0,0.0,0.0,0.0,0.68616706,-0.34307206,0.60268724,0.21964619
244580020000000,0.14125538,0.30790257,1.3875377,-0.1226312,0.05467244,-0.16997325,1.0,0.0,0.0,0.0
244580040000000,0.0,0.0,0.0,0.108123146,0.06887506,-0.122020334,1.0,0.0,0.0,0.0
244580060000000,-0.049425125,0.051917315,0.82904303,0.0,0.0,0.0,0.69804525,-0.33564892,0.59234995,0.22179797
244580120000000,0.0,0.0,0.0,-0.36086863,-0.2003638,-0.06291912,0.70042455,-0.33546448,0.58899134,0.22351333
244580140000000,0.26615524,0.5740812,0.8117234,-0.6774496,-0.17913623,-0.14966199,0.69948345,-0.34086162,0.585555,0.22729172
244580160000000,0.0,0.0,0.0,0.0,0.0,0.0,0.6986462,-0.34643504,0.581676,0.23136435
244580180000000,-0.15186882,0.51971173,0.80279076,-0.732122,-0.038331795,-0.24969117,0.6969412,-0.35276434,0.57883537,0.23405123
244580200000000,-0.40182495,0.437158,0.51439315,-0.76159626,-0.01572978,-0.28084528,1.0,0.0,0.0,0.0
244580220000000,-0.40586185,0.2857759,0.45285517,-0.7658723,-0.034208454,-0.22632557,1.0,0.0,0.0,0.0
244580260000000,-0.23344612,0.21552515,0.7739066,0.0,0.0,0.0,1.0,0.0,0.0,0.0
244580280000000,-0.06555271,0.55741954,0.7267518,0.0,0.0,0.0,0.6877968,-0.37745348,0.5687361,0.2469896
244580300000000,0.0,0.0,0.0,-0.38530326,0.019394971,0.041233405,0.68617016,-0.3798194,0.56806296,0.2494238
244580320000000,0.0,0.0,0.0,-0.3820962,0.068264194,0.07345655,0.68414384,-0.38219008,0.5678322,0.251882
244580340000000,0.0,0.0,0.0,0.0,0.0,0.0,0.6818281,-0.38382038,0.5686326,0.25386888
244580360000000,0.0,0.0,0.0,0.0,0.0,0.0,0.6795027,-0.3842347,0.5702862,0.2557603
244580380000000,0.069992065,0.39109194,0.8505731,0.0,0.0,0.0,0.67702395,-0.3840829,0.57228005,0.25809762
244580400000000,0.110640526,0.2920437,0.8225217,0.0,0.0,0.0,1.0,0.0,0.0,0.0
244580440000000,0.09523201,0.1465354,0.9073175,0.0,0.0,0.0,0.66896886,-0.3835632,0.5773063,0.26847243
244580460000000,0.0,0.0,0.0,-0.38087448,0.14385876,0.39950588,1.0,0.0,0.0,0.0
244580480000000,0.014773369,-0.11154151,0.83122396,0.0,0.0,0.0,0.6621743,-0.38527578,0.5793845,0.27821133
244580500000000,0.0,0.0,0.0,-0.5551238,0.076052725,0.43844852,1.0,0.0,0.0,0.0
244580520000000,-0.042624474,-0.4508797,0.9488398,0.0,0.0,0.0,1.0,0.0,0.0,0.0
244580540000000,-0.17020416,-0.53632784,0.88023096,-0.5865834,0.11957687,0.44440445,0.65034956,-0.389673,0.5811508,0.29574338
244580580000000,0.0,0.0,0.0,-0.6246097,0.08002335,0.43066,0.64254767,-0.3933131,0.5810861,0.3078576
244580640000000,0.0,0.0,0.0,-0.3118467,0.055588737,0.36880988,1.0,0.0,0.0,0.0
244580680000000,0.17188072,-0.94879603,0.6817394,0.0,0.0,0.0,0.63865757,-0.39897364,0.57292163,0.32356995
244580700000000,0.0,0.0,0.0,-0.24770586,0.0030543262,0.20708331,0.6384037,-0.400027,0.57128274,0.32566124
244580720000000,0.29210567,-0.92311084,0.6389475,0.0,0.0,0.0,0.63776994,-0.401244,0.56984025,0.3279253
244580760000000,0.0,0.0,0.0,-0.2499966,0.0016798794,0.10705414,1.0,0.0,0.0,0.0
244580780000000,0.0,0.0,0.0,0.0,0.0,0.0,0.6361062,-0.4054823,0.565651,0.33315477
244580800000000,0.038443565,-0.8843378,0.5279964,-0.23564127,-0.027488936,0.06078109,1.0,0.0,0.0,0.0
244580820000000,0.0,0.0,0.0,-0.24297164,-0.04795292,0.027641652,1.0,0.0,0.0,0.0
244580840000000,0.0,0.0,0.0,-0.23900102,-0.053145275,-0.011759156,0.63409436,-0.40959904,0.56199837,0.338099
244580860000000,0.01851368,-0.8288828,0.52661276,-0.22113322,-0.059101213,-0.059864793,1.0,0.0,0.0,0.0
244580880000000,0.0,0.0,0.0,-0.20631973,-0.08093964,-0.11957687,0.6339315,-0.41312724,0.55848384,0.33993015
244580900000000,0.23204422,-0.7418927,0.5664253,-0.1684461,-0.08384126,-0.18096884,1.0,0.0,0.0,0.0
244580920000000,0.24581146,-0.66802895,0.59091246,0.0,0.0,0.0,0.6354362,-0.41675493,0.5545289,0.33916655
244580960000000,0.18193245,-0.35553467,0.55258465,0.0,0.0,0.0,1.0,0.0,0.0,0.0
244580980000000,0.20088291,-0.20655274,0.46514297,0.0,0.0,0.0,0.63969904,-0.42064837,0.549831,0.33395517
244581000000000,0.13946438,-0.1015836,0.45091754,0.016340645,-0.06429356,-0.3294091,1.0,0.0,0.0,0.0
244581040000000,0.036766052,0.0998044,0.47420666,0.0,0.0,0.0,1.0,0.0,0.0,0.0
244581060000000,0.0,0.0,0.0,0.0,0.0,0.0,0.6454744,-0.4261571,0.5430106,0.32694432
244581080000000,0.0,0.0,0.0,0.039095376,-0.075289145,-0.24724771,1.0,0.0,0.0,0.0
244581100000000,0.0,0.0,0.0,0.0,0.0,0.0,0.6481625,-0.42764896,0.54033095,0.32410532
244581120000000,0.21959496,0.4755211,0.3522479,0.019547688,-0.06093381,-0.21013765,1.0,0.0,0.0,0.0
244581140000000,0.0,0.0,0.0,-0.02031127,-0.05390886,-0.18860464,1.0,0.0,0.0,0.0
244581160000000,0.022351265,0.60796785,0.23307341,0.0,0.0,0.0,0.6504853,-0.43053514,0.53671765,0.32162502
244581220000000,0.10208416,0.49871695,0.03539437,0.0,0.0,0.0,0.6503116,-0.43382707,0.5336124,0.32271796
244581280000000,-0.088541985,0.8978386,-0.25114357,-0.547488,0.017715093,-0.018936822,0.6451736,-0.43936935,0.53182244,0.32843658
244581300000000,-0.11724472,0.37403393,0.24902356,0.0,0.0,0.0,0.6414201,-0.44525003,0.52853507,0.33314157
244581320000000,0.079232216,0.36586487,0.7730972,-1.0331259,-0.040011674,0.026572637,1.0,0.0,0.0,0.0
244581360000000,0.2905302,0.6842278,0.029893577,0.0,0.0,0.0,1.0,0.0,0.0,0.0
244581400000000,-0.05545616,-0.16056633,0.32976115,-1.0650436,0.23655757,0.13591751,0.61192584,-0.47730038,0.51756763,0.3603539
244581420000000,0.0,0.0,0.0,-0.9317222,0.258396,0.17806722,1.0,0.0,0.0,0.0
244581440000000,-0.18783283,0.40251708,0.17674816,0.0,0.0,0.0,1.0,0.0,0.0,0.0
244581460000000,0.0,0.0,0.0,0.0,0.0,0.0,0.5907148,-0.49446604,0.5157224,0.37495318
244581480000000,-0.13909721,0.6180886,0.18331517,-1.3603969,0.3631594,0.24220806,0.58103794,-0.5025989,0.5138818,0.38172606
244581500000000,-0.14648342,0.18897283,0.4428916,-1.5598444,0.38591412,0.19058995,1.0,0.0,0.0,0.0
244581520000000,0.0,0.0,0.0,-1.5879441,0.39752057,0.19242255,0.5593507,-0.5217996,0.507901,0.39609173
244581540000000,0.0,0.0,0.0,-1.5725199,0.33826664,0.18112154,1.0,0.0,0.0,0.0
244581560000000,0.0,0.0,0.0,-1.5430456,0.21090123,0.14523321,0.54127663,-0.5377455,0.498181,0.41190445
244581580000000,-0.07620621,-0.7043457,2.1752694,-1.3359623,0.09605856,0.20112738,0.53646344,-0.5423328,0.49127698,0.42039147
244581600000000,0.0,0.0,0.0,0.0,0.0,0.0,0.54165906,-0.536425,0.48113886,0.43285
244581620000000,0.0,0.0,0.0,-0.7646506,0.19318613,0.5403103,0.5346468,-0.53741366,0.4822152,0.43909898
244581640000000,0.0,0.0,0.0,-0.9984592,0.21502456,0.5180137,1.0,0.0,0.0,0.0
244581660000000,0.23033714,-0.64666986,0.7319348,0.0,0.0,0.0,0.51632863,-0.5462385,0.47943178,0.45296073
244581680000000,0.22876549,-1.0214994,0.84696645,0.0,0.0,0.0,0.5167635,-0.5506153,0.4684061,0.45866543
244581700000000,0.0,0.0,0.0,0.0,0.0,0.0,0.5103698,-0.55043334,0.470934,0.46342966
244581720000000,0.0,0.0,0.0,-0.1142318,0.21288654,0.74113226,0.5054705,-0.5482766,0.47575912,0.4664179
244581760000000,0.0,0.0,0.0,0.40943244,0.21655174,0.7136433,0.5001785,-0.54157156,0.4873456,0.46799147
244581780000000,0.861392,-1.4186763,0.13778302,0.6094908,0.24877487,0.6774496,0.49928418,-0.5365349,0.49486548,0.46685532
244581800000000,0.81920433,-1.6027085,0.06076032,0.0,0.0,0.0,1.0,0.0,0.0,0.0
244581820000000,0.0,0.0,0.0,0.0,0.0,0.0,0.50030184,-0.53031874,0.50710213,0.45968202
244581840000000,0.0,0.0,0.0,0.7840455,0.3549127,0.39293906,0.5051215,-0.53307855,0.50723344,0.45099193
244581860000000,0.0,0.0,0.0,0.77824235,0.34391713,0.2750421,1.0,0.0,0.0,0.0
244581880000000,-0.235466,-1.890693,0.3342263,0.0,0.0,0.0,1.0,0.0,0.0,0.0
244581900000000,-0.16981983,-1.5280188,0.5459242,0.729984,0.25778514,0.088728175,0.51182705,-0.52538216,0.521467,0.43598053
244581920000000,0.0,0.0,0.0,0.0,0.0,0.0,0.515526,-0.52344537,0.52412903,0.4307281
244581940000000,-0.08632183,-0.9324602,0.7096493,0.0,0.0,0.0,1.0,0.0,0.0,0.0
244581960000000,-0.07162094,-0.81571734,0.7788068,0.0,0.0,0.0,0.5238815,-0.5221427,0.52569604,0.42018917
244581980000000,-0.058986664,-0.6803063,0.7419869,0.0,0.0,0.0,0.5292968,-0.5219295,0.5249777,0.41452727
244582000000000,-0.021365166,-0.73335385,0.6627544,0.0,0.0,0.0,0.53612864,-0.5209171,0.52416205,0.40800193
244582020000000,-0.006038666,-0.610569,0.4499015,0.0,0.0,0.0,1.0,0.0,0.0,0.0
244582040000000,0.0,0.0,0.0,0.0,0.0,0.0,0.5520028,-0.5177128,0.521457,0.3941435
244582060000000,0.0,0.0,0.0,0.6759224,-0.2565634,-0.711658,1.0,0.0,0.0,0.0
244582080000000,0.14443302,-0.09319842,-0.544327,0.61636305,-0.2660318,-0.68676525,0.5666661,-0.5159217,0.51613766,0.3825131
244582100000000,0.0,0.0,0.0,0.698219,-0.2576324,-0.6440047,0.57387227,-0.5144255,0.514006,0.37660974
244582120000000,0.059309006,0.04519677,-1.0559227,0.0,0.0,0.0,1.0,0.0,0.0,0.0
244582140000000,0.0,0.0,0.0,0.9149234,-0.2125811,-0.59635717,0.58432645,-0.51177245,0.5153516,0.36202815
244582180000000,0.0,0.0,0.0,0.0,0.0,0.0,0.59369975,-0.50871277,0.5174628,0.34779912
244582200000000,-0.30207157,0.6434642,-1.4816914,0.8142834,-0.06169739,-0.5093089,0.59834963,-0.5068816,0.518489,0.34090763
244582220000000,-0.21187973,0.624357,-1.3803198,0.0,0.0,0.0,0.6015512,-0.50494,0.5211559,0.33401865
244582240000000,0.0,0.0,0.0,0.9274462,0.05024367,-0.3575089,0.602475,-0.5032989,0.5263174,0.32665616
244582260000000,0.0,0.0,0.0,1.057255,0.13713925,-0.2910773,0.6059061,-0.49974778,0.5307264,0.3185273
244582280000000,0.0,0.0,0.0,1.2076806,0.15790866,-0.21853705,1.0,0.0,0.0,0.0
244582300000000,0.0,0.0,0.0,0.0,0.0,0.0,0.6076555,-0.49126178,0.5467564,0.30078924
244582320000000,0.10608482,0.57044864,-1.1992486,0.0,0.0,0.0,1.0,0.0,0.0,0.0
244582360000000,0.19824314,0.54250646,-1.0035444,0.0,0.0,0.0,0.6169161,-0.46981254,0.57014066,0.27134937
244582380000000,0.5033226,0.43391562,-0.86317235,1.6595682,0.3080288,0.16554448,0.6224177,-0.4593315,0.57727104,0.2614745
244582420000000,0.0,0.0,0.0,2.0712914,0.4016439,0.4167628,1.0,0.0,0.0,0.0
244582440000000,0.0,0.0,0.0,2.4625504,0.3915646,0.5655085,0.6401883,-0.4144701,0.6057267,0.22686714
244582460000000,0.43201733,-0.98567367,0.092568815,2.9318478,0.37216964,0.7021896,1.0,0.0,0.0,0.0
244582480000000,-0.03528595,-1.3335786,0.013073742,0.0,0.0,0.0,1.0,0.0,0.0,0.0
244582500000000,-0.7301302,-1.5106606,-0.26649117,0.0,0.0,0.0,0.6676891,-0.33478254,0.64173436,0.1740374
244582520000000,0.0,0.0,0.0,4.1126504,0.17913623,0.9436341,0.6781556,-0.3011456,0.65267164,0.15308872
244582540000000,-1.4836836,-1.5414779,-0.9008213,0.0,0.0,0.0,1.0,0.0,0.0,0.0
244582560000000,0.0,0.0,0.0,3.9409971,-0.16493362,0.9016371,1.0,0.0,0.0,0.0
244582580000000,0.0,0.0,0.0,3.4923167,-0.2863431,0.7458665,0.70732325,-0.20304991,0.67034715,0.09538994
244582600000000,0.0,0.0,0.0,2.820365,-0.43951756,0.50717086,0.7151659,-0.17962839,0.6705897,0.08112263
244582620000000,-0.9334917,-0.32784557,-1.9543943,1.9530889,-0.59589905,0.20143281,0.72232276,-0.1643106,0.6680145,0.070770696
244582640000000,-0.56128025,0.059307218,-2.061924,0.97112304,-0.6919576,-0.17195857,0.7282915,-0.15865593,0.66351974,0.06450934
244582660000000,-0.43350315,0.2227931,-1.9672976,0.0,0.0,0.0,0.7323725,-0.16287005,0.65824425,0.06179275
244582700000000,-0.4819708,0.20081043,-1.8428733,-1.3973542,-0.6418667,-1.2490667,1.0,0.0,0.0,0.0
244582720000000,0.0,0.0,0.0,0.0,0.0,0.0,0.7341374,-0.21775642,0.6397361,0.06604602
244582740000000,0.0,0.0,0.0,-2.019215,-0.5193882,-1.5679383,1.0,0.0,0.0,0.0
244582760000000,0.22585297,0.29746962,-1.2948632,-1.952478,-0.39690968,-1.6019942,1.0,0.0,0.0,0.0
244582780000000,0.0,0.0,0.0,-1.6180294,-0.2744312,-1.5494597,1.0,0.0,0.0,0.0
244582800000000,0.40868378,0.7013941,-1.0838861,0.0,0.0,0.0,1.0,0.0,0.0,0.0
244582820000000,0.0,0.0,0.0,0.0,0.0,0.0,0.72274196,-0.31732202,0.6106847,0.06336474
244582840000000,0.0,0.0,0.0,0.0,0.0,0.0,0.722654,-0.32339615,0.6082152,0.057100754
244582860000000,0.0,0.0,0.0,0.3016147,0.15897769,-0.6391178,0.7200764,-0.32365102,0.6113025,0.055221725
244582880000000,-0.93255615,1.5695624,-0.8397857,0.6049093,0.22174409,-0.2855795,0.7202503,-0.32047635,0.6132167,0.04999819
244582920000000,0.0,0.0,0.0,0.82848597,0.031612277,0.43692136,0.72259426,-0.30336085,0.61924744,0.04860408
244582960000000,0.71772766,1.1189842,0.057512283,0.0,0.0,0.0,0.72428393,-0.2846745,0.6261354,0.048246413
244582980000000,0.4318695,1.0686836,0.2704327,0.6786713,0.345597,0.6052147,1.0,0.0,0.0,0.0
244583000000000,0.0,0.0,0.0,0.65408397,0.43875396,0.5002986,1.0,0.0,0.0,0.0
244583020000000,-0.52696896,1.2449349,0.5502187,0.0,0.0,0.0,1.0,0.0,0.0,0.0
244583040000000,-0.9755144,1.5230975,0.48857778,0.6226244,0.46929723,0.22785273,1.0,0.0,0.0,0.0
244583060000000,0.0,0.0,0.0,0.0,0.0,0.0,0.7188421,-0.24884598,0.6478577,0.040276516
244583080000000,0.0,0.0,0.0,0.0,0.0,0.0,0.7178512,-0.24423665,0.65074545,0.03960377
244583100000000,-0.42863464,1.8926233,0.57736576,0.04337143,0.25488353,0.32696563,1.0,0.0,0.0,0.0
244583120000000,0.058031082,1.73119,0.5254898,0.0,0.0,0.0,1.0,0.0,0.0,0.0
244583140000000,0.65473557,1.5227362,0.42819035,0.0,0.0,0.0,1.0,0.0,0.0,0.0
244583180000000,0.0,0.0,0.0,-1.0613784,0.023060163,0.59757894,0.7099893,-0.2308321,0.6581834,0.09708923
244583200000000,0.0,0.0,0.0,-1.3238977,0.035888333,0.56428677,1.0,0.0,0.0,0.0
244583220000000,-0.6465759,-0.41912258,1.377525,0.0,0.0,0.0,1.0,0.0,0.0,0.0
244583240000000,0.0,0.0,0.0,-1.3374895,-0.01740966,0.75136423,0.69783807,-0.24773514,0.6576519,0.13835928
244583260000000,-1.1137104,-1.1350682,1.155627,-1.1133019,-0.016340645,0.93034774,1.0,0.0,0.0,0.0
244583280000000,0.0,0.0,0.0,0.0,0.0,0.0,0.68994665,-0.24814695,0.6596317,0.16517492
244583320000000,0.0,0.0,0.0,0.0,0.0,0.0,0.68340665,-0.24035168,0.6639019,0.18552804
244583340000000,0.15029907,-1.746353,1.1051613,-0.22311853,0.013897184,0.9088148,0.68380505,-0.23861472,0.66252744,0.19113076
244583360000000,0.43431568,-1.5345016,0.9638237,-0.24007004,0.019547688,0.7350236,1.0,0.0,0.0,0.0
244583400000000,0.0,0.0,0.0,-0.41829,0.014202617,0.37522396,1.0,0.0,0.0,0.0
244583420000000,0.0,0.0,0.0,0.0,0.0,0.0,0.6849807,-0.24748316,0.65329343,0.20678775
244583440000000,0.0,0.0,0.0,-0.76159626,-0.041080687,0.026572637,0.6862805,-0.25561973,0.6477671,0.20994161
244583460000000,0.0,0.0,0.0,-0.8756753,-0.06307184,-0.1226312,1.0,0.0,0.0,0.0
244583480000000,0.0,0.0,0.0,0.0,0.0,0.0,0.68729156,-0.27325124,0.6371845,0.21670282
244583500000000,0.0,0.0,0.0,-0.64766985,-0.12018774,-0.28955013,1.0,0.0,0.0,0.0
244583520000000,0.02799511,-1.3587458,1.0912212,0.0,0.0,0.0,1.0,0.0,0.0,0.0
244583540000000,0.0,0.0,0.0,0.0,0.0,0.0,0.69012123,-0.2860638,0.628943,0.21524595
244583580000000,0.0,0.0,0.0,0.40866885,-0.19624045,-0.45265114,1.0,0.0,0.0,0.0
244583600000000,-0.0897789,-0.6359508,1.2646527,0.9091202,-0.23655757,-0.3915646,0.701754,-0.28219566,0.6234846,0.1979239
244583620000000,0.0,0.0,0.0,1.6265814,-0.3023783,-0.24083363,1.0,0.0,0.0,0.0
244583660000000,0.4593134,1.827567,0.32043767,2.130698,-0.40439278,-0.15149458,1.0,0.0,0.0,0.0
244583680000000,0.0,0.0,0.0,0.0,0.0,0.0,0.73260635,-0.22658035,0.6238805,0.15073964
244583720000000,-0.2494297,0.24395692,-0.20322442,0.0,0.0,0.0,0.73749226,-0.23526707,0.6156728,0.14731468
244583740000000,-0.29994583,-0.600966,0.12065256,-0.9505063,-0.49296826,-0.54153204,0.7389264,-0.24539521,0.60913813,0.15073079
244583760000000,-0.0059432983,0.4284811,0.27626526,0.0,0.0,0.0,0.7407752,-0.25187138,0.60359645,0.15324567
244583780000000,0.088498116,1.2018232,-0.19466186,0.0,0.0,0.0,0.742192,-0.25758317,0.59888893,0.15535155
244583820000000,0.27637863,0.44787264,-0.5704049,-0.8542951,-0.3462079,-0.462425,1.0,0.0,0.0,0.0
244583840000000,0.4315796,0.050004005,-0.29140544,-0.66706485,-0.2875648,-0.44593164,0.74395853,-0.28128082,0.58414024,0.16182427
244583860000000,0.66819286,0.010597706,-0.47943974,0.0,0.0,0.0,0.74497217,-0.28463554,0.5813195,0.16145216
244583880000000,0.84615517,0.725634,-0.41894472,0.022449298,-0.10888673,-0.19074267,0.7460245,-0.28505808,0.5801394,0.16008656
244583900000000,0.0,0.0,0.0,0.013897184,-0.0065668016,-0.113162786,0.74627286,-0.28542838,0.5799036,0.15912053
244583920000000,0.64523506,1.2882057,-0.8705556,-0.21319197,0.13897185,-0.11377365,1.0,0.0,0.0,0.0
244583960000000,0.0,0.0,0.0,0.0,0.0,0.0,0.7378948,-0.29696885,0.5840341,0.16194178
244583980000000,0.0,0.0,0.0,0.14813483,0.43569964,0.20433442,1.0,0.0,0.0,0.0
244584020000000,0.0,0.0,0.0,0.0,0.0,0.0,0.7340364,-0.28091815,0.5986067,0.15474392
244584040000000,0.0,0.0,0.0,0.96791595,0.4427246,0.205098,0.7338669,-0.27322802,0.60378015,0.1491157
244584060000000,0.0,0.0,0.0,0.8017606,0.5879578,0.2406809,0.72887677,-0.2685275,0.6131793,0.14367573
244584080000000,0.0,0.0,0.0,0.8579602,0.75136423,0.24388795,1.0,0.0,0.0,0.0
244584100000000,-0.7248106,-1.0407113,-0.30148333,1.506241,0.9746355,0.17821993,0.72312313,-0.25140104,0.63059634,0.1274312
244584120000000,0.0,0.0,0.0,2.1852176,1.0305296,0.06246097,1.0,0.0,0.0,0.0
244584140000000,-1.2631731,0.721313,-0.8681797,2.5934284,0.8790351,0.14630222,0.72211903,-0.21693976,0.6502577,0.092985034
244584160000000,-0.5952425,1.124816,-2.4822557,0.0,0.0,0.0,0.71938616,-0.20282945,0.65974563,0.07797038
244584180000000,-0.98344517,0.37915826,-1.0070138,0.0,0.0,0.0,0.7144436,-0.19496621,0.6687769,0.06554264
244584200000000,-0.8860569,1.4269193,-0.3377145,1.2333369,0.93951076,-0.12965615,1.0,0.0,0.0,0.0
244584220000000,0.047283173,-0.36793375,-1.9945142,1.1979067,1.0354166,-0.15286903,0.70263815,-0.1818365,0.6866022,0.042573653
244584240000000,0.0,0.0,0.0,-0.43768495,1.0619892,-0.36117408,1.0,0.0,0.0,0.0
244584260000000,0.0,0.0,0.0,0.10140363,0.8924741,0.1853976,0.6894568,-0.18288216,0.69938457,0.045437507
