timestamp,accel_x,accel_y,accel_z,gyro_x,gyro_y,gyro_z,rot_w,rot_x,rot_y,rot_z
3430520000000,0.0,0.0,0.0,0.0,0.0,0.0,0.0069077243,0.19321792,0.6692401,-0.7174516
3431020000000,0.0,0.0,0.0,0.1366811,0.26633725,0.07376198,1.0,0.0,0.0,0.0
3431160000000,0.0,0.0,0.0,0.0,0.0,0.0,0.046201188,0.1800111,0.67022794,-0.7185096
3448400000000,0.073310375,-0.017092705,0.10188544,0.0,0.0,0.0,1.0,0.0,0.0,0.0
3448440000000,-0.103257656,0.3160925,0.092404604,0.024892759,-0.022143865,0.080634214,1.0,0.0,0.0,0.0
3448460000000,-0.17280293,0.84595585,0.34480762,0.0,0.0,0.0,0.15584713,0.198481,0.7059412,-0.6617885
3448480000000,-0.15790081,1.8828187,0.638373,-0.043066,-0.19990565,0.28710666,1.0,0.0,0.0,0.0
3448500000000,-0.13342571,3.4141932,1.0005283,0.0,0.0,0.0,0.16345009,0.20021163,0.7047416,-0.66071075
3448520000000,0.016738892,4.8512034,1.5681124,-0.18219055,-0.45173484,0.95096445,0.17194578,0.20295542,0.704025,-0.6584776
3448540000000,0.25518847,5.079118,1.7304693,0.0,0.0,0.0,0.18429604,0.20852771,0.7005577,-0.6570922
3448560000000,0.0,0.0,0.0,0.5369505,-0.46944994,1.951409,0.1990688,0.21857144,0.6930038,-0.6575286
3448580000000,0.0,0.0,0.0,0.68844515,-0.35353827,2.4269676,0.21530423,0.23290026,0.68263507,-0.6583395
3448600000000,-1.8078051,4.2976565,-0.84534687,0.70295316,-0.31871894,2.9310842,0.23142359,0.25400195,0.6695564,-0.6584985
3448620000000,-3.223699,4.438189,-2.501731,0.3669773,-0.3182608,3.3125696,1.0,0.0,0.0,0.0
3448640000000,-4.261075,4.810355,-3.881953,-0.7293731,-0.42730024,3.4831536,0.27443454,0.30079964,0.6439761,-0.6476882
3448660000000,-4.2774844,4.073616,-4.1836963,-2.1068742,-0.61559945,3.4584136,0.30523884,0.31608275,0.64122754,-0.62908524
3448680000000,-3.6267662,1.6569166,-3.7309775,-2.8142562,-0.64721173,3.3310483,0.33370525,0.33133408,0.64192754,-0.60563004
3448700000000,-3.2359982,-0.8359313,-3.0559297,-2.3952026,-0.4802928,3.194978,0.3660351,0.33906615,0.6457016,-0.5780329
3448720000000,-3.3357925,-2.1325984,-2.54038,-1.4534011,-0.22815818,3.091131,0.3859656,0.357431,0.64054,-0.55944824
3448740000000,-3.387168,-2.7061517,-2.151597,-0.817185,0.00870483,2.9996538,0.40667063,0.3723201,0.6347473,-0.54138035
3448760000000,-2.7667294,-3.2065816,-1.4685233,-0.56428677,0.16875152,2.8258626,0.41726062,0.39629,0.62274474,-0.5301291
3448780000000,-1.7434692,-3.847253,-0.58929825,-0.32085696,0.33169982,2.538145,0.43125066,0.41205126,0.6155828,-0.51506734
3448800000000,-0.9063482,-4.211258,0.059649706,0.07284568,0.505491,2.2223277,0.4344253,0.4355782,0.6028816,-0.50801593
3448820000000,-0.4206848,-4.4241953,0.21696657,0.2938262,0.6049093,1.8984165,0.43970314,0.45147797,0.59537977,-0.49834916
3448840000000,-0.07368088,-4.714263,0.46052432,0.27320948,0.6084218,1.5968018,0.4368021,0.47284222,0.5832837,-0.4953831
3448860000000,0.3557167,-5.1204314,0.76203555,0.18997909,0.5719226,1.2866349,0.43889558,0.48459366,0.5782646,-0.48800594
3448880000000,0.7206249,-5.5059576,1.1877853,0.18845193,0.5193882,0.9839512,0.43425962,0.5006341,0.56891346,-0.48695153
3448900000000,0.90931606,-5.691954,1.5895789,0.24205536,0.42241332,0.67088276,0.43398783,0.50800467,0.5661671,-0.48274285
3448920000000,1.050292,-5.51861,1.8507946,0.21303925,0.2771801,0.3538437,0.42744246,0.51887614,0.5589227,-0.4854543
3448940000000,1.1775961,-4.9864283,1.933572,0.017256944,0.10644327,0.025198191,0.42255318,0.5168236,0.5610221,-0.48948586
3448960000000,1.1348114,-4.09644,1.7696121,0.0,0.0,0.0,0.40539238,0.50733066,0.5652648,-0.5086732
3448980000000,0.91572285,-3.529672,1.5927956,-0.6638578,-0.2678644,-0.6220135,0.39922372,0.4924527,0.5742031,-0.518075
3449000000000,0.64342594,-3.3363912,1.343644,-0.88193667,-0.43890667,-0.8932377,0.3942424,0.48606837,0.5770001,-0.52476794
3449020000000,0.31324768,-3.2631903,1.2339743,-0.91797775,-0.55970526,-1.1345295,0.39606324,0.47327593,0.58502823,-0.5261994
3449040000000,-0.052043915,-3.099572,1.0904199,-0.8153524,-0.63163465,-1.3376422,0.39257514,0.46380657,0.58926535,-0.53247976
3449060000000,0.0,0.0,0.0,0.0,0.0,0.0,0.39203185,0.44859558,0.5973758,-0.5368567
3449080000000,0.0,0.0,0.0,-0.6382015,-0.6774496,-1.7009543,0.38569045,0.43736354,0.60189056,-0.5456041
3449100000000,-1.5396166,-1.738709,0.3964465,-0.6606508,-0.66920286,-1.9159788,0.38252702,0.42015767,0.61046785,-0.5517878
3449120000000,-2.0242987,-1.2413535,0.030623019,0.0,0.0,0.0,0.3741838,0.40568647,0.6173588,-0.56060076
3449140000000,-2.4470472,-0.9128132,-0.07178295,-0.58246,-0.52274793,-2.2667682,0.36796603,0.3863695,0.6278044,-0.5667287
3449160000000,0.0,0.0,0.0,-0.267559,-0.44333544,-2.3953552,1.0,0.0,0.0,0.0
3449180000000,-2.878994,0.113040924,-0.15909666,0.10934488,-0.36728272,-2.4811819,0.34529155,0.35207257,0.6433157,-0.5856311
3449200000000,-2.9777908,1.0613818,-0.44453233,0.44623706,-0.32284227,-2.4915667,0.33051383,0.3365317,0.6480891,-0.59790266
3449220000000,-2.9480596,1.9282992,-0.75904167,0.6936375,-0.2866485,-2.431091,0.31580666,0.3208123,0.6514638,-0.6106887
3449260000000,-2.9723024,3.1941395,-1.0584013,0.9775371,-0.23151793,-2.2079725,0.28518444,0.29345626,0.652916,-0.63738054
3449280000000,-2.8652086,3.976949,-1.3706278,0.0,0.0,0.0,1.0,0.0,0.0,0.0
3449300000000,0.0,0.0,0.0,0.0,0.0,0.0,0.330733,0.3524032,0.6289376,-0.6089869
3449320000000,-0.7068281,3.2597768,-1.0106332,0.5707009,-0.26389378,-1.6230689,0.32138044,0.34405738,0.6296441,-0.6179705
3449340000000,-0.37899446,3.521894,-0.99778247,0.50518554,-0.2284636,-1.3581061,0.3121439,0.3350347,0.6306344,-0.6265926
3449360000000,-0.11269426,3.8015733,-1.0004759,0.46074513,-0.18051068,-1.0662653,0.30577788,0.32660094,0.63140637,-0.63337016
3449380000000,0.041751385,4.0924406,-1.0636796,0.37751472,-0.12660182,-0.75518215,1.0,0.0,0.0,0.0
3449400000000,0.12270594,4.22158,-1.0771648,0.29458976,-0.076816306,-0.40698898,0.29659283,0.3177586,0.6307744,-0.64279544
3449420000000,0.2251234,4.203521,-1.0742364,0.25900686,-0.027183503,-0.03634648,0.2949324,0.3171621,0.62951887,-0.6450807
3449440000000,0.0,0.0,0.0,0.22785273,0.0346666,0.3378085,0.29545563,0.31916276,0.62737334,-0.6459442
3449460000000,0.20705366,3.9922442,-1.0581646,0.14523321,0.10216721,0.6962337,0.29802626,0.32379422,0.6245565,-0.64518756
3449480000000,0.0656085,3.8635745,-1.0539742,0.027947085,0.15500705,1.0532844,0.3028351,0.33066863,0.6214602,-0.6424457
3449500000000,-0.03222847,3.5949018,-0.995118,-0.07376198,0.21426098,1.3976597,1.0,0.0,0.0,0.0
3449520000000,0.0,0.0,0.0,0.0,0.0,0.0,0.3188899,0.35080233,0.6140799,-0.63099366
3449540000000,-0.43867397,2.6029031,-0.74361014,0.0,0.0,0.0,0.33035854,0.36585763,0.60886604,-0.6215252
3449560000000,-0.5351505,1.4972134,-0.51686,-0.2125811,0.4689918,2.303573,1.0,0.0,0.0,0.0
3449580000000,-0.8866043,0.824734,-0.4219926,-0.2967278,0.5332854,2.5357015,0.37066182,0.42255417,0.58905435,-0.5805797
3449600000000,-1.1644545,-0.04317665,-0.32499105,-0.34132096,0.6204864,2.6984973,0.38391334,0.4400676,0.5817604,-0.5661324
3449620000000,0.0,0.0,0.0,0.0,0.0,0.0,0.39682275,0.4584672,0.5738555,-0.5504811
3449640000000,-2.063179,-1.9683976,0.06784928,-0.032223143,0.77274454,2.826779,0.40849346,0.47791144,0.5646256,-0.53472584
3449660000000,-2.1454964,-2.8474698,0.50965106,0.32406402,0.80909103,2.7795897,0.4181774,0.49840188,0.5534166,-0.5200512
3449680000000,0.0,0.0,0.0,0.72784597,0.8801041,2.6623034,1.0,0.0,0.0,0.0
3449700000000,0.0,0.0,0.0,0.0,0.0,0.0,0.42709917,0.54244065,0.52598894,-0.4966689
3449720000000,-1.8128166,-4.5774946,1.3338068,1.4437801,1.0768027,2.2536347,0.4257476,0.565113,0.51128846,-0.48782215
3449740000000,0.0,0.0,0.0,1.5525141,1.1155926,1.9976821,0.42134932,0.58770716,0.49625903,-0.4804083
3449760000000,-1.4292698,-4.6895175,2.2736306,1.3726143,1.1151345,1.7238617,0.4155527,0.6081772,0.4828643,-0.4735806
3449780000000,-1.2218418,-5.051039,2.8406458,0.0,0.0,0.0,0.40971717,0.6259425,0.47185856,-0.4665589
3449800000000,-0.97208977,-5.403669,3.4440951,1.1100949,0.9757045,1.2040154,0.40240833,0.6424657,0.46114317,-0.46114257
3449820000000,-0.74886036,-5.344266,3.898078,0.88163126,0.82451534,0.9540188,1.0,0.0,0.0,0.0
3449840000000,-0.4392233,-5.2316885,4.1630893,0.54443365,0.643852,0.7263188,0.39146468,0.66509724,0.4471234,-0.4521966
3449860000000,-0.113832474,-5.173475,4.236742,0.0,0.0,0.0,0.3880145,0.6679885,0.44548213,-0.45252833
3449880000000,0.22531796,-4.9729257,4.124605,-0.076052725,0.25167647,0.3294091,0.38270792,0.6604046,0.44895658,-0.464584
3449900000000,0.5972214,-4.547388,3.747492,-0.25244007,0.045662176,0.16371189,1.0,0.0,0.0,0.0
3449920000000,0.83243084,-3.999382,3.1710014,-0.3315471,-0.14905111,0.004276057,0.36363176,0.61358315,0.46760625,-0.5221419
3449940000000,0.83958817,-3.6921988,2.7207007,-0.3408628,-0.32528573,-0.15668693,0.35911593,0.59567463,0.47465193,-0.5393633
3449960000000,0.6950073,-3.6068735,2.4310002,-0.28924468,-0.4980079,-0.31810808,0.35576427,0.5892121,0.47400326,-0.54916465
3449980000000,0.5123234,-3.584086,2.1630573,-0.21410827,-0.65576386,-0.4961753,0.35692617,0.5816726,0.47627005,-0.5544616
3450000000000,0.3557024,-3.505713,1.7950459,-0.19624045,-0.7640397,-0.7089091,0.3548057,0.5762015,0.4748185,-0.5627187
3450020000000,0.06324768,-3.2356758,1.5973909,-0.25030205,-0.84589565,-0.946383,0.35505018,0.56671965,0.47800335,-0.5694568
3450040000000,-0.38672352,-2.9679403,1.368905,-0.35918877,-0.9334021,-1.2046263,0.35181856,0.55789775,0.47923404,-0.5790585
3450060000000,-0.9409504,-2.6794798,0.9696021,-0.5467244,-1.0283916,-1.5120442,0.3510512,0.5439633,0.4859085,-0.58716255
3450080000000,-1.4618206,-2.6823926,0.34195352,-0.8414669,-1.118647,-1.9168952,0.34736815,0.5289232,0.49272522,-0.59732527
3450100000000,-2.0614061,-2.5216684,-0.45690992,-1.0934488,-1.1441506,-2.3634377,0.34523106,0.507774,0.5060109,-0.6057508
3450120000000,-2.718791,-2.3179033,-0.91050047,-1.2563971,-1.1508701,-2.856406,0.33879024,0.48515713,0.5203047,-0.6157328
3450140000000,-3.3702202,-1.9540689,-1.0159159,-1.1633929,-1.1120802,-3.2847753,0.33143607,0.45737904,0.5390119,-0.6248365
3450160000000,-3.901493,-1.1477847,-0.9971261,-0.9447031,-1.07665,-3.6289978,0.31894115,0.4290708,0.55660075,-0.63590133
3450180000000,-4.097376,-0.12970638,-1.0940133,-0.8324566,-1.0725267,-3.879147,0.30423278,0.3981467,0.574403,-0.6472889
3450200000000,-4.004138,0.57547903,-1.1308633,-0.71868294,-1.0288498,-3.9477167,0.2875829,0.36593503,0.591468,-0.6584476
3450220000000,-3.7896814,1.2168422,-1.1527884,-0.472657,-0.946383,-3.8147008,0.26976678,0.33439952,0.60640335,-0.66908735
3450240000000,-3.484383,2.2001667,-1.3179281,-0.1769982,-0.8724683,-3.5343137,1.0,0.0,0.0,0.0
3450260000000,-3.0367446,3.3731303,-1.5775553,0.02977968,-0.8002335,-3.1606169,0.23478429,0.27966735,0.62561727,-0.689395
3450280000000,0.0,0.0,0.0,0.16554448,-0.70096785,-2.7360654,0.22086047,0.2586199,0.6307155,-0.69752014
3450300000000,-1.8337593,5.0945024,-1.8077943,0.29764408,-0.56413406,-2.2887595,0.2069811,0.23918404,0.6338542,-0.70581776
3450320000000,-1.4391308,5.5878625,-1.7877585,0.44348818,-0.39843684,-1.8293887,1.0,0.0,0.0,0.0
3450340000000,0.0,0.0,0.0,0.58108556,-0.24373524,-1.3591752,1.0,0.0,0.0,0.0
3450360000000,-1.3481069,6.264526,-1.828995,0.6415612,-0.12568553,-0.8784242,0.1806678,0.20270813,0.6327343,-0.7252006
3450380000000,0.0,0.0,0.0,0.5983425,-0.029321533,-0.39202276,0.17557216,0.19973871,0.6291557,-0.7303711
3450400000000,-1.1544151,6.671775,-1.983494,0.4822781,0.07651087,0.0917825,0.17607008,0.19821845,0.6262525,-0.7331553
3450420000000,0.0,0.0,0.0,0.31581733,0.18784106,0.5558874,0.17719245,0.20238534,0.6228708,-0.7346258
3450440000000,-1.182024,6.4668455,-1.9819176,0.15592335,0.27320948,1.0262536,0.18268202,0.20872536,0.62044996,-0.733555
3450460000000,-1.2841754,6.222727,-1.8888297,0.0,0.0,0.0,0.19022347,0.21934503,0.6176565,-0.7308922
3450480000000,-1.3481092,5.8551145,-1.823077,-0.045356743,0.40026945,1.9553796,0.20114435,0.23284838,0.6145673,-0.7263812
3450500000000,-1.5244951,5.431033,-1.9300259,-0.13607024,0.5018258,2.3877196,1.0,0.0,0.0,0.0
3450520000000,0.0,0.0,0.0,0.0,0.0,0.0,0.23067965,0.26938957,0.60681355,-0.71133226
3450540000000,-2.1932383,4.20452,-2.245597,-0.660498,0.7031059,3.147483,0.2659466,0.31606555,0.60134697,-0.6839275
3450560000000,-2.6666021,3.5110543,-2.325685,-1.0410671,0.75991637,3.458719,0.28699026,0.33866295,0.59837925,-0.66699797
3450580000000,-3.1936321,2.517711,-2.3175352,-1.3136657,0.86299986,3.7065775,0.31019717,0.36193347,0.5961778,-0.64602935
3450600000000,-4.063548,1.3006439,-1.8486907,0.0,0.0,0.0,0.33417305,0.38583627,0.59380466,-0.6219765
3450620000000,-4.6485653,-0.33649397,-0.7418257,-1.0170907,0.68936145,3.8426478,0.3580056,0.4091733,0.58911115,-0.59779364
3450640000000,-4.109271,-2.188854,0.21721533,-0.14737125,0.5288566,3.746742,0.37844375,0.43364668,0.5779732,-0.5785135
3450660000000,0.0,0.0,0.0,0.0,0.0,0.0,0.3943365,0.4588568,0.56123185,-0.5647726
3450680000000,-2.2539978,-3.5588815,0.04233998,0.0,0.0,0.0,1.0,0.0,0.0,0.0
3450700000000,0.0,0.0,0.0,2.266921,1.0514518,2.6268733,1.0,0.0,0.0,0.0
