timestamp,accel_x,accel_y,accel_z,gyro_x,gyro_y,gyro_z,rot_w,rot_x,rot_y,rot_z
244552560000000,0.0,0.0,0.0,0.0,0.0,0.0,1.0,0.0,0.0,0.0
244552800000000,-1.0901756,-9.496684,5.5092287,-1.0771081,-0.3359759,-0.66446865,0.6004769,0.38992548,0.6942614,-0.07339485
244552820000000,-1.418498,-9.714228,4.453843,-0.8416196,-0.54137933,-1.1187997,0.6067302,0.37629494,0.69597197,-0.076835446
244552840000000,-1.3616858,-9.406813,3.5487156,-0.5019785,-0.6892087,-1.5922203,0.61216015,0.36132604,0.6980545,-0.08615887
244552860000000,-1.514863,-8.530012,2.9524639,-0.15118915,-0.71578133,-2.0809124,0.61570024,0.3449393,0.7012334,-0.10100421
244552880000000,-1.9083462,-7.23269,2.7012436,0.095294975,-0.75136423,-2.50806,1.0,0.0,0.0,0.0
244552900000000,-2.6729755,-5.9243426,2.6890352,0.18997909,-0.6973027,-2.7769935,0.61849546,0.3072585,0.70928097,-0.14133675
244552920000000,-3.8112488,-4.805512,2.888392,0.34254268,-0.5853616,-2.9321532,0.617137,0.2873812,0.71398,-0.16366577
244552940000000,-4.468358,-4.074938,2.5467567,0.8875872,-0.678824,-2.8736627,0.61437374,0.2711027,0.7162366,-0.18987758
244552960000000,-4.0609884,-3.3338141,1.8148203,1.3730724,-0.9213375,-2.7537806,0.6117267,0.25825238,0.7148653,-0.2192344
244552980000000,-3.7166977,-2.716379,0.867573,1.5696182,-0.98471475,-2.7719538,0.60847044,0.24585012,0.71190816,-0.25001645
244553000000000,-5.2316017,-2.203392,-0.040031195,1.7530305,-0.7440339,-2.7276661,0.6022012,0.23518157,0.7093479,-0.28083614
244553020000000,-7.2532063,-1.5722353,-0.98318744,1.9430096,-0.7852673,-2.5361598,0.5955019,0.22667204,0.70497304,-0.3114648
244553040000000,-6.636798,-0.8369968,-2.0260913,2.2902865,-1.4043792,-2.1534526,0.59332186,0.22086854,0.6937336,-0.34339485
244553060000000,-4.410595,0.24649572,-3.1277406,2.3736696,-1.8330538,-1.9176587,0.59426945,0.21548685,0.67800677,-0.3751216
244553080000000,-3.3290815,1.2301488,-3.6240575,2.005776,-1.7631098,-1.9092593,0.59447867,0.20788638,0.663761,-0.4034845
244553100000000,-3.3790026,1.9903585,-3.7831903,1.4056009,-1.6436857,-1.9955441,0.59403944,0.19624934,0.65255517,-0.42752215
244553120000000,-3.151637,3.1052115,-4.1206555,0.73716164,-1.7038559,-2.072513,0.59457195,0.17968495,0.6434323,-0.44742873
244553140000000,-1.9758749,4.530088,-4.575575,-0.065209866,-1.8489364,-2.159256,0.59675294,0.15695976,0.63661456,-0.46257064
244553160000000,-0.66374874,6.3688755,-4.939064,-0.99112886,-1.8235855,-2.2224805,0.59914315,0.13488528,0.63668966,-0.4663258
244553180000000,-0.24768734,8.902893,-5.056903,-1.7008016,-1.3979651,-2.0034852,0.60105705,0.10766555,0.63996387,-0.46646002
244553200000000,0.20042801,9.012007,-4.74879,-2.2284365,-0.9783007,-1.636508,0.60410833,0.09559325,0.6523553,-0.44760194
244553220000000,0.88251114,8.240068,-4.8949866,-2.8716774,-0.66645396,-1.0554224,0.6050358,0.08128001,0.6679271,-0.42567426
244553240000000,1.721631,7.8711824,-5.3315086,-3.2872186,-0.27397305,-0.27931812,0.6107941,0.05554807,0.6803743,-0.40116802
244553260000000,1.9872808,7.3293123,-5.0251565,-3.3140967,0.17287487,0.3381139,0.6123746,0.038901724,0.6945483,-0.37561497
244553280000000,1.3859382,6.2018194,-3.800996,-2.707813,0.52687126,0.81229806,0.6146235,0.027246991,0.7072396,-0.34829277
244553300000000,0.282444,5.0425177,-2.6052384,-1.5259414,0.68768156,1.2165382,0.6139943,0.030472351,0.7166948,-0.32928893
244553320000000,-0.61543465,3.9829335,-1.5883849,-0.27687466,0.75823647,1.6384933,0.6135028,0.06038421,0.72655225,-0.30346307
244553340000000,-1.2218037,3.174767,-1.0966828,0.7118107,0.82436264,2.0986276,0.61329883,0.0834107,0.7277674,-0.29540125
244553360000000,-1.53199,2.2780967,-0.8029702,1.4477507,0.8918633,2.5033257,0.61273134,0.11364908,0.72636944,-0.28988218
244553380000000,-1.7506046,1.5733926,-0.841492,1.9996674,0.9941832,2.8053987,0.6109646,0.14961357,0.7228411,-0.28607494
244553400000000,-2.280343,1.1690128,-0.68038607,2.1771238,1.1873693,2.9956832,0.60718006,0.1882015,0.71874917,-0.2816244
244553420000000,-3.0047226,0.42933476,-0.2074393,2.0137172,1.3811663,3.1456506,0.6017823,0.22691162,0.7150196,-0.2740733
244553440000000,-3.7827997,-0.7077806,0.45056486,1.6320792,1.5355625,3.2462907,0.59552544,0.2639683,0.71193814,-0.26232478
244553460000000,-4.499378,-1.7414635,1.1229639,1.1102476,1.6209309,3.303254,0.58937705,0.29798776,0.7095043,-0.24584901
244553480000000,-5.6319942,-2.877619,1.6578676,0.5141958,1.7414241,3.2942436,0.58334476,0.32811034,0.7082648,-0.22452939
244553500000000,-7.864543,-3.6978068,3.0402565,-0.18967366,1.6756034,3.2143729,0.57892096,0.35305125,0.7076039,-0.19875169
244553520000000,-8.310755,-3.6959593,3.9208717,-2.240501,1.059393,2.864958,0.58501834,0.3612674,0.7077176,-0.16240475
244553540000000,-5.3656416,-7.504801,3.4277968,-3.2765284,0.4793765,3.035542,0.5988363,0.36278522,0.704077,-0.118564434
244553560000000,-2.52676,-10.635538,4.0115776,-2.6062565,0.18967366,2.797152,0.6104562,0.3661358,0.6974353,-0.08289664
244553580000000,-1.7012815,-11.544928,5.2285223,-0.72219545,0.6443101,2.4914138,0.6101306,0.37979844,0.69262767,-0.06132618
244553600000000,-3.4226856,-9.745752,5.5528955,0.81199265,1.1157454,1.9747746,0.59938425,0.39953953,0.69166553,-0.052016366
244553620000000,-4.3943844,-7.2539315,4.953328,1.028697,0.9060659,1.5877914,0.5891619,0.41721195,0.6903713,-0.04701198
244553640000000,-2.737875,-6.8178363,4.3802123,0.2648101,0.37232238,1.2883148,0.5865908,0.42727563,0.6868351,-0.04005463
244553660000000,-0.7544813,-7.765173,4.2088537,-0.39385536,0.26145032,0.90194255,0.59662294,0.40953442,0.68798316,-0.05478904
244553680000000,-0.67333317,-8.813706,4.577119,-0.4529566,0.37888917,0.5166393,0.59711957,0.4078331,0.6889525,-0.049647745
244553700000000,-1.3765621,-8.637745,4.8501782,-0.33337972,0.3145956,0.26984972,0.59636253,0.4075699,0.6900861,-0.044941034
244553720000000,-1.3736992,-7.9662337,4.84531,-0.5746715,0.034208454,0.1414153,0.5987647,0.4046497,0.689988,-0.04069459
244553740000000,-0.09870052,-7.1659184,4.217421,-1.1615603,-0.26053402,0.0018325958,0.6221217,0.36164895,0.691109,-0.067402005
244553760000000,0.8079395,-7.3723054,3.94312,-1.6190983,-0.39477167,-0.21029036,0.63577914,0.33637896,0.6911089,-0.07072819
244553780000000,1.2364435,-7.546424,3.6650066,-1.7105755,-0.43493605,-0.48472157,0.64688313,0.3135063,0.6915703,-0.07061513
244553800000000,1.4014778,-7.402092,3.2121482,-1.5244142,-0.4552473,-0.7948884,0.6569778,0.28769335,0.69273716,-0.075682715
244553820000000,1.3531723,-6.6359377,2.4392076,-1.1817188,-0.4353942,-1.112691,0.667637,0.246912,0.6954948,-0.09788939
244553840000000,0.7438431,-6.2625484,1.9153063,-0.73716164,-0.38041633,-1.4014776,0.6711922,0.22611077,0.6976356,-0.108071506
244553860000000,-0.012723923,-5.75006,1.4690225,-0.29718593,-0.33337972,-1.6404786,0.6722073,0.21221907,0.6993756,-0.11821232
244553880000000,-0.7306299,-5.1232176,1.0585461,0.1020145,-0.29168814,-1.817935,0.67167556,0.19979793,0.70105636,-0.13210909
244553900000000,-1.4022875,-4.666531,0.92676836,0.48181996,-0.2921463,-1.9860756,0.6698923,0.18871053,0.70230484,-0.14966805
244553920000000,-1.8649216,-4.1749187,0.795478,0.8746063,-0.35842517,-2.1293235,0.6673556,0.17902955,0.70238507,-0.17099778
244553940000000,-2.2867851,-3.4431784,0.6167872,1.2163854,-0.37384954,-2.2304218,0.6637613,0.17087345,0.7014835,-0.19530559
244553960000000,-3.047965,-2.5651958,0.43644157,1.4133894,-0.3277292,-2.3087652,0.65881354,0.16342717,0.7002255,-0.2212254
244553980000000,-3.6643972,-1.7857941,0.2839554,1.491733,-0.38805214,-2.3377812,0.6535892,0.15598042,0.6979481,-0.2477093
244554000000000,-3.3827152,-1.144804,-0.12213205,1.541213,-0.5795584,-2.3333526,0.64925337,0.1482747,0.6936398,-0.27449685
244554020000000,-2.8546724,-0.66140175,-0.8873645,1.5931365,-0.659429,-2.3780985,0.64481527,0.14024943,0.6881048,-0.3017536
244554040000000,-3.4288683,-0.21433043,-1.5013872,1.6772833,-0.52412236,-2.4640777,0.6382956,0.13249265,0.6828852,-0.329685
244554060000000,-4.440525,0.54873943,-2.0111551,1.8061758,-0.5381723,-2.5120306,0.63084126,0.12512235,0.67662835,-0.35854957
244554080000000,-4.5398684,1.4811916,-2.4486182,1.8758144,-0.79473567,-2.4591908,0.6247647,0.11752734,0.667597,-0.38751867
244554100000000,-3.8874617,2.2146122,-2.7958412,1.7788396,-1.0261009,-2.4026856,0.62011856,0.108624525,0.6566666,-0.4152624
244554120000000,-3.7886229,2.571976,-3.1126213,1.5818355,-1.0128145,-2.3796256,0.6149856,0.09857284,0.64615774,-0.44108543
244554140000000,-4.6859922,2.9193573,-3.607564,1.4156802,-0.91736686,-2.3257167,0.60897964,0.088227294,0.6365027,-0.46499905
244554160000000,-5.3394527,3.624171,-4.316165,1.2712106,-0.9896017,-2.1733057,0.6037586,0.077739514,0.62648165,-0.48677817
244554180000000,-4.6013813,4.4674926,-5.0020213,0.93447113,-1.2692252,-1.9830213,0.6013349,0.0648991,0.61564124,-0.5051438
244554200000000,-3.1971788,4.935337,-5.225728,0.3368922,-1.3303118,-1.8481728,0.60004306,0.048821706,0.6071087,-0.5186365
244554220000000,-1.5489502,4.364705,-4.183853,-0.30497447,-1.1111639,-1.8051068,0.5963741,0.06672702,0.62915826,-0.49400952
244554240000000,-1.0944633,4.2667704,-3.6588912,-0.7124216,-0.8035932,-1.8070921,0.5927453,0.04813008,0.63005024,-0.49937284
244554260000000,-0.843174,4.421632,-3.1859558,-0.81214535,-0.55756724,-1.7628044,0.5876112,0.029532675,0.63183826,-0.50460017
244554280000000,-0.52658606,4.736272,-2.8707645,-0.6994407,-0.3555236,-1.6432275,0.58164614,0.013493467,0.63380384,-0.5097042
244554300000000,-0.23880911,4.9313884,-2.6759248,-0.48456886,-0.14385876,-1.4601207,0.5751122,0.0010387525,0.6356525,-0.5149669
244554320000000,-0.117664814,5.0100107,-2.460599,-0.17623462,0.05131268,-1.2061534,0.56855357,-0.0069870595,0.63689005,-0.52064294
244554340000000,-0.0609107,5.050289,-2.3438334,0.22892176,0.20326541,-0.86406887,0.56281525,-0.009667179,0.636786,-0.52692425
244554360000000,0.015250683,5.0958796,-2.4203222,0.6533204,0.2874121,-0.4642576,0.55870676,-0.00691236,0.63484555,-0.53363854
244554380000000,0.24362612,5.12458,-2.5653305,0.979217,0.32895094,-0.049785517,0.55655915,0.00050067063,0.6313476,-0.5400388
244554400000000,0.50132895,5.12934,-2.7565684,1.1372783,0.37522396,0.35246924,0.55622536,0.01151531,0.6272083,-0.54506016
244554420000000,0.51714754,5.1463566,-2.9164157,1.0989466,0.4792238,0.72158456,0.5571457,0.025101734,0.62376624,-0.5476077
244554440000000,-0.06004095,5.217862,-3.160032,0.8723156,0.66599584,1.0812315,0.5587135,0.040652707,0.62250787,-0.54650766
244554460000000,-0.8001628,5.253882,-3.3133006,0.4465425,0.7837401,1.4833336,0.5617596,0.056936402,0.62396705,-0.54023105
244554480000000,-1.3167086,5.003752,-3.3471222,-0.18585575,0.86162543,1.9234619,0.56727695,0.07494168,0.6297628,-0.5253375
244554500000000,-1.7854176,4.365385,-3.0589607,-0.96837413,1.0042624,2.3988678,0.57509685,0.097194366,0.6418053,-0.49789852
244554520000000,-2.529584,3.4942214,-2.7099564,-1.778076,1.1756102,2.8846583,0.58339834,0.1112839,0.6545194,-0.46783188
244554540000000,-3.256812,2.4143422,-2.2299564,-2.5302038,1.2762502,3.3417382,0.5930429,0.124262065,0.6697137,-0.42935148
244554560000000,-3.840479,1.1172917,-1.4151142,-3.1297681,1.302212,3.7545304,0.60370135,0.13619176,0.685533,-0.38345945
244554580000000,-4.405732,-0.60526395,-0.3049673,-3.4032829,1.2742649,4.105931,0.6145532,0.14840592,0.6997396,-0.3326629
244554600000000,-5.0721445,-2.610783,1.1706412,-3.211166,1.1840096,4.340503,0.62460244,0.1627351,0.71017724,-0.28113595
244554620000000,-5.6883793,-4.935062,2.725442,-2.383138,0.99265605,4.4431286,0.63311857,0.18201776,0.714795,-0.23473081
244554640000000,-5.8354836,-6.913276,3.8498554,-0.9793697,0.79000145,4.446641,0.6389773,0.20946924,0.7130042,-0.19863456
244554660000000,-5.1976805,-8.146186,4.071374,0.68752885,0.698219,4.330882,0.64036536,0.2462852,0.7060771,-0.17530285
244554680000000,-4.3722305,-8.66304,3.8508081,2.1183279,0.7319693,4.012774,0.63603306,0.28959185,0.69627833,-0.16369233
244554700000000,-3.7349672,-8.450966,3.4814725,3.088382,0.8359691,3.4620788,0.6258797,0.33453676,0.68574697,-0.16158861
244554720000000,-3.4827852,-7.5731153,3.5558147,3.4617734,0.88712907,2.8040242,0.61161065,0.37693414,0.6755096,-0.16595162
244554740000000,-3.04212,-6.81399,3.9682567,3.34464,0.7293731,2.1407773,0.5970158,0.41238344,0.6659925,-0.1731072
244554760000000,-2.0990944,-6.343423,4.4784575,3.0024028,0.43936482,1.5030339,0.58402354,0.44057292,0.6567536,-0.18299416
244554780000000,-0.97596073,-5.725112,4.8916273,2.5722008,0.20250183,0.9390526,0.57321084,0.4610987,0.64897174,-0.19404432
244554800000000,0.24129581,-4.155636,4.372396,1.9472857,0.061086524,0.43890667,0.58218557,0.43857154,0.63965106,-0.244052
244554820000000,0.62037086,-3.4929042,4.3750286,1.1157454,-0.078343466,0.04352415,0.5790588,0.44280043,0.6359917,-0.25324526
