timestamp,accel_x,accel_y,accel_z,gyro_x,gyro_y,gyro_z,rot_w,rot_x,rot_y,rot_z
7559360000000,0.03914976,0.4770918,-0.11700153,0.0,0.0,0.0,1.0,0.0,0.0,0.0
7559380000000,0.08304167,0.36412764,-0.015780449,0.0,0.0,0.0,0.3602259,-0.04924724,-0.27375123,0.8904337
7559400000000,0.11455572,-0.0366745,0.14488602,0.00061086525,-0.02565634,0.025961773,0.3598742,-0.049056932,-0.2742143,0.8904441
7559420000000,0.13452268,0.08216715,0.030285835,0.06047566,0.008552114,0.03756821,0.35965174,-0.048923828,-0.27383897,0.89065677
7559440000000,0.08093059,0.25821257,0.2162447,0.064751714,0.027794369,0.022143865,0.359358,-0.048874676,-0.273104,0.8910035
7559460000000,0.14714539,0.11442375,0.064928055,0.08155051,0.06169739,0.03176499,0.35936087,-0.04904035,-0.2722978,0.89124006
7559480000000,0.063958764,0.5173588,0.18959713,0.008857546,0.08384126,0.03436117,0.35932648,-0.04958291,-0.2713317,0.8915184
7559500000000,-0.09022498,0.65308714,0.17180157,-0.12095132,0.03940081,0.009010263,0.35925862,-0.05047446,-0.2715557,0.89142764
7559520000000,-0.01001811,0.12449074,0.12644482,-0.13408493,0.018020526,-0.017715093,0.35932276,-0.05115077,-0.2729036,0.89095145
7559540000000,0.116678596,-0.37995434,0.29051018,-0.02443461,0.031306844,-0.042760566,0.35961908,-0.0516041,-0.27372542,0.8905535
7559560000000,0.16600585,-0.16188145,0.00074768066,0.08460484,0.0852157,-0.025961773,0.36018068,-0.051818077,-0.27317145,0.8904843
7559580000000,0.063173294,0.17592144,-0.011761665,0.13500121,0.10064005,0.017715093,0.3605586,-0.05227605,-0.2716663,0.890765
7559600000000,0.0027588606,0.24274778,0.19250774,0.10170906,0.095294975,0.009010263,0.36067492,-0.052692574,-0.27002794,0.8911913
7559620000000,-0.07294297,0.5928545,0.06809139,0.019700404,0.052534413,0.0030543262,0.36095,-0.053250447,-0.26925397,0.891281
7559640000000,0.08205128,0.1855526,0.20581436,0.03894266,0.027030786,0.0015271631,0.36096957,-0.05345,-0.26910806,0.8913052
7559660000000,0.034912348,-0.55434847,0.4829197,0.10170906,0.05879578,-0.05681047,0.36119336,-0.053318396,-0.2682458,0.8914824
7559680000000,0.17773545,0.9289808,-0.03851509,-0.008093964,0.080634214,-0.027947085,0.36198494,-0.053466074,-0.2671626,0.8914777
7559700000000,-0.2666214,1.1704383,-0.015975952,-0.19364429,0.010842858,-0.012217305,0.36226496,-0.054399118,-0.2679558,0.89106935
7559720000000,0.09131074,0.13868809,-0.0947237,-0.19410244,0.009162978,-0.007788532,0.3622125,-0.055107318,-0.2701135,0.8903954
7559740000000,0.07833958,0.3616233,-0.22706223,-0.1375974,0.028405234,0.02367103,0.3620742,-0.055903465,-0.27146658,0.8899905
7559760000000,-0.042612553,-0.09333038,0.4754238,-0.08735373,-0.045814894,0.009773844,0.3617908,-0.056489736,-0.2723728,0.8897918
7559780000000,0.007828474,-0.37070656,0.41385365,-0.03481932,-0.04841107,-0.03863723,0.36181843,-0.056048363,-0.2731893,0.88955814
7559800000000,0.04837799,0.4023304,-0.081085205,-0.0070249503,-0.06001751,-0.012675454,0.3619404,-0.05550951,-0.27344084,0.889465
7559820000000,0.057588696,0.34046745,-0.02094841,-0.018020526,-0.0777326,0.011453724,0.3617228,-0.054878812,-0.27379185,0.88948464
7559840000000,0.1246829,0.2477665,0.08020496,-0.02107485,-0.04642576,0.030390546,0.3613539,-0.054359097,-0.27421227,0.88953704
7559860000000,0.072209,0.44640923,-0.12955189,-0.016493361,-0.04230242,0.053145275,0.36087906,-0.054285027,-0.27446973,0.8896549
7559880000000,-0.08597624,-0.14577961,0.4615612,-0.019242255,-0.10720685,0.022143865,0.36016482,-0.053805918,-0.27480415,0.8898702
7559900000000,-0.05248189,0.1144557,0.28732777,-0.0143553335,-0.1611157,-0.014202617,0.35980776,-0.052621085,-0.27554205,0.88985723
7559920000000,-0.015274286,0.36063623,-0.21136284,0.0062613687,-0.17180584,0.008552114,0.35952023,-0.051069036,-0.27620217,0.88985926
7559940000000,0.05771482,0.15592384,0.21059418,0.00290161,-0.16523905,-0.008093964,0.35889584,-0.04950411,-0.2767669,0.89002436
7559960000000,0.19222915,-0.013624668,0.3621769,-0.022143865,-0.08781188,-0.043676864,0.35873422,-0.04816893,-0.2772506,0.8900122
7559980000000,0.0488559,0.6648426,-0.08330536,-0.09239337,-0.017715093,-0.061086524,0.35921964,-0.047901276,-0.2779373,0.8896166
7560000000000,0.15991366,0.33333158,0.2104044,-0.11484267,-0.01695151,-0.048716504,0.35961303,-0.048103157,-0.27903792,0.889102
7560020000000,0.15766251,-0.33178806,0.048761368,-0.01282817,-0.006414085,-0.03390302,0.35994446,-0.048082493,-0.2798794,0.8887045
7560040000000,0.14419615,0.2769308,-0.2508626,0.076358154,0.021227567,0.0290161,0.3600747,-0.0479392,-0.27931145,0.88883805
7560060000000,-0.036491513,0.80738926,-0.052923203,0.0076358155,-0.01572978,0.072540246,0.35957763,-0.048000652,-0.2785978,0.8892599
7560080000000,-0.034684062,0.3540783,0.19754982,-0.069027774,-0.046120327,0.05222898,0.3588316,-0.047983095,-0.27910018,0.88940465
7560100000000,0.026677728,0.006937027,0.16042995,-0.06612616,-0.032223143,0.03359759,0.35834137,-0.04794392,-0.27989793,0.88935363
7560120000000,0.04508567,0.3500986,0.2563429,-0.06887506,-0.040011674,0.019700404,0.35804474,-0.04796809,-0.28055358,0.8892653
7560140000000,0.031448245,0.004137993,0.19642067,-0.056963183,-0.064446285,-0.003970624,0.35777247,-0.047733292,-0.28130674,0.88914955
7560160000000,0.026951432,0.1466279,0.19614506,-0.046120327,-0.08124508,-0.021227567,0.35770953,-0.047233947,-0.2820864,0.8889545
7560180000000,0.14995372,-0.053437233,0.022943497,0.01572978,-0.049785517,-0.018936822,0.35771072,-0.046501838,-0.28254443,0.8888471
7560200000000,0.07748234,0.19824076,-0.06672096,0.049632803,-0.015882496,0.004276057,0.35774055,-0.046088226,-0.28221986,0.8889599
7560220000000,0.14448488,0.2380662,0.07583809,0.05681047,-0.0067195175,0.023365596,0.3575968,-0.04582279,-0.2817506,0.8891802
7560240000000,0.041458726,0.2601018,0.029233932,0.037415497,0.019700404,0.02565634,0.35741696,-0.04578036,-0.2812166,0.8894238
7560260000000,-0.006496787,0.5366497,0.10176945,-0.02855795,-0.012064588,0.01740966,0.35725805,-0.045931283,-0.28104675,0.8895334
7560280000000,-0.024910688,0.21003485,0.27441788,-0.057268616,-0.05513059,-0.006872234,0.3570605,-0.045761697,-0.2817032,0.88941383
7560300000000,0.03386748,-0.08914232,0.15482807,-0.0018325958,-0.043676864,-0.024740042,0.35707498,-0.045338508,-0.2822791,0.88924706
7560320000000,0.062350035,0.2577815,0.0075645447,0.016187929,-0.044745877,-0.013591751,0.3572016,-0.04485435,-0.2822086,0.88924325
7560340000000,0.005716443,0.29681158,0.077773094,-0.022449298,-0.057726767,-0.0071776668,0.35713482,-0.044315215,-0.28237933,0.8892429
7560360000000,0.07243037,0.20187855,0.1341362,-0.028252518,-0.041996986,-0.012675454,0.35703346,-0.043885827,-0.28286853,0.88914937
7560380000000,0.083013535,0.15045452,0.08220005,-0.009315695,-0.03726278,-0.0071776668,0.35703427,-0.04360198,-0.28318697,0.8890616
7560400000000,0.08641815,-0.038657665,0.16719437,0.02076942,-0.02321288,-0.0125227375,0.35703647,-0.04323573,-0.2832679,0.88905287
7560420000000,0.047138095,0.18207455,0.08716869,0.037110064,0.0013744468,-0.009162978,0.35715336,-0.042957224,-0.28294703,0.8891216
7560440000000,0.050589323,0.41171503,0.05259323,-0.0009162979,-0.0018325958,-0.0041233404,0.35726723,-0.042886503,-0.28268287,0.8891633
7560460000000,0.0590595,0.1981368,0.18256664,-0.025350908,-0.023060163,0.0033597588,0.35720646,-0.042800866,-0.2829312,0.88911283
7560480000000,0.0066007376,0.19354391,0.13747978,-0.032528576,-0.0065668016,-0.008552114,0.35716024,-0.04271244,-0.28323272,0.8890397
7560500000000,0.064804316,0.40452576,0.012617111,-0.061086524,-0.023823744,-0.0032070426,0.35718906,-0.042757977,-0.2836613,0.88888913
7560520000000,0.044376135,0.053708553,0.1207428,-0.04505131,-0.03604105,-0.0015271631,0.35706648,-0.042683218,-0.28440353,0.8887049
7560540000000,0.06674838,-0.11791992,0.16216755,0.027794369,-0.011301007,-0.0096211275,0.3570519,-0.042424694,-0.28458893,0.8886637
7560560000000,0.003837347,0.13880014,0.16731548,0.05757405,-0.0065668016,-0.010537425,0.35715088,-0.042169098,-0.284081,0.88879865
7560580000000,0.08028698,0.19496155,0.026353836,0.050396383,-0.00030543262,-0.0154243475,0.3573229,-0.041840762,-0.28358424,0.8889037
7560600000000,0.081725836,0.089075565,0.29300404,0.025503624,0.035277467,-0.059101213,0.3576102,-0.0417038,-0.28315827,0.8889303
7560620000000,0.04717827,0.309999,0.114276886,-0.006872234,0.06490443,-0.066737026,0.35848635,-0.041930046,-0.28295994,0.88862985
7560640000000,0.12380552,0.26693678,-0.11750889,0.017715093,0.069791354,-0.024129177,0.35912725,-0.042421225,-0.28273767,0.8884185
7560660000000,0.12259674,0.12668133,0.05177784,0.03268129,0.08353582,-0.012217305,0.35954654,-0.042951956,-0.2822344,0.88838345
7560680000000,0.08326459,0.22334719,-0.11324787,0.06795876,0.08735373,0.0061086523,0.35974064,-0.043507654,-0.28149417,0.8885127
7560700000000,-0.0406518,0.098229885,-0.057923317,0.118202426,0.050396383,-0.017715093,0.3604536,-0.04392797,-0.2802189,0.88860613
7560720000000,0.25185037,0.223917,0.30530357,0.0983493,0.06963864,0.031154128,0.36017257,-0.043752477,-0.27895382,0.8891267
7560740000000,0.00917232,0.5531163,0.091238976,-0.01786781,0.11988231,0.016646078,0.360323,-0.04454363,-0.27809122,0.8892966
7560760000000,0.10068607,0.36277628,0.16158104,-0.13072516,0.16081028,-0.012064588,0.36068216,-0.046071112,-0.2783273,0.88899934
7560780000000,0.20454454,-0.36713123,0.3525982,-0.022143865,0.20311269,-0.029932396,0.3614043,-0.0480854,-0.27890748,0.8884173
7560800000000,0.25115955,-0.7176924,0.077679634,0.1704314,0.322995,-0.011453724,0.36237246,-0.049991768,-0.27714148,0.8884705
7560820000000,0.18050373,0.56224394,-0.12411404,0.2041817,0.34513888,0.020463986,0.3633988,-0.052437756,-0.2738343,0.8889356
7560840000000,0.115415454,-0.040035725,0.23258018,0.20463985,0.3286455,0.015271631,0.36418337,-0.05470025,-0.2708145,0.8894031
7560860000000,-0.090331435,0.28687477,0.02436161,0.16798794,0.2761111,-0.0016798794,0.36509603,-0.056788336,-0.26786506,0.88979113
7560880000000,-0.29995465,0.5410085,0.10441589,0.09590584,0.12385293,-0.013591751,0.36577937,-0.058065783,-0.26596764,0.8899973
7560900000000,-0.06461489,-0.021594048,-0.080532074,0.107359566,0.0870483,-0.006872234,0.36624616,-0.058378432,-0.26495868,0.89008576
7560920000000,-0.14203417,0.20585299,0.25563717,0.11575896,0.039553523,-0.0018325958,0.36642528,-0.058627255,-0.2636293,0.89039046
7560940000000,-0.07083857,-0.0025186539,0.5054474,0.09208794,0.022449298,-0.0571159,0.36670902,-0.05828176,-0.26267603,0.89057803
7560960000000,0.43338835,-0.053227425,0.07339096,0.14431691,0.11499538,-0.081855945,0.36772582,-0.058086704,-0.2616595,0.8904707
7560980000000,0.55773646,0.21417141,-0.1813078,0.23732115,0.2284636,-0.050549097,0.36901626,-0.05867231,-0.25934207,0.89057636
7561000000000,0.19793826,-0.20110607,0.22235966,0.33964106,0.25213462,-0.061850104,0.3702247,-0.059858683,-0.25578734,0.89102393
7561020000000,-0.14650643,0.6317463,0.080999374,0.2835942,0.20295998,-0.08460484,0.37184522,-0.06064544,-0.25182787,0.89142364
7561060000000,-0.18192655,1.057488,-0.5245547,0.0,0.0,0.0,1.0,0.0,0.0,0.0
