timestamp,accel_x,accel_y,accel_z,gyro_x,gyro_y,gyro_z,rot_w,rot_x,rot_y,rot_z
7562700000000,0.07837093,0.08819151,0.10949898,0.0,0.0,0.0,0.3634586,-0.03206505,-0.2815091,0.8874809
7562720000000,0.057005048,0.07534027,0.039222717,0.01817324,0.01160644,0.0071776668,1.0,0.0,0.0,0.0
7562740000000,0.026743412,0.101756096,0.095659256,0.024587326,0.009468411,0.0047342055,0.36345023,-0.03213521,-0.28110293,0.8876105
7562760000000,0.015365124,0.21734667,0.069931984,0.014049901,0.00580322,0.00061086525,0.3634753,-0.03212716,-0.2808536,0.88767946
7562780000000,-0.0040317774,0.22012424,0.04608059,-0.0065668016,-0.020158553,-0.0009162979,0.3634852,-0.03205844,-0.28081906,0.88768893
7562800000000,0.06792176,0.23935938,0.1027832,-0.022143865,-0.029932396,0.0010690142,0.3633978,-0.031804293,-0.28107506,0.8876527
7562820000000,0.030359864,0.1486249,0.04249096,-0.029932396,-0.025045475,-0.00045814895,0.36331302,-0.0316503,-0.2814129,0.88758594
7562840000000,0.060257554,0.12934446,0.040135384,-0.021991149,-0.02321288,-0.00030543262,0.36325556,-0.031509284,-0.28176877,0.8875016
7562860000000,0.087213635,0.0707078,0.05044937,-0.0013744468,-0.00290161,0.0025961774,0.36320657,-0.031392403,-0.28191784,0.88747835
7562880000000,0.014337301,0.16465044,0.069787025,0.00015271631,-0.002443461,0.00076358154,0.36320072,-0.03138866,-0.28183407,0.8875075
7562900000000,-0.0068366528,0.21535826,0.0490036,-0.02367103,-0.01572978,-0.0053450707,0.3632196,-0.031330638,-0.2819419,0.8874676
7562920000000,0.028321743,0.21627474,0.014954567,-0.04337143,-0.017562376,-0.0027488936,0.36321616,-0.031249382,-0.2823356,0.8873467
7562940000000,0.01043272,0.15989494,0.065164566,-0.038789943,-0.019089539,0.003970624,0.36314893,-0.031243984,-0.28280094,0.88722616
7562960000000,0.076390624,0.04539728,0.07514095,-0.020922136,-0.02031127,0.006414085,0.36302757,-0.031170923,-0.28312764,0.88717425
7562980000000,0.0036005974,0.16321898,0.093235016,-0.019700404,-0.03191771,-0.00045814895,0.36293784,-0.031006383,-0.28333697,0.8871499
7563000000000,0.01899302,0.100337505,0.09026623,-0.015118915,-0.034972034,-0.009468411,0.36288124,-0.030710965,-0.28364757,0.8870841
7563020000000,0.09280443,0.14042902,-0.013047218,0.004886922,-0.01038471,-0.00076358154,0.36289445,-0.030459771,-0.2837975,0.88703936
7563040000000,0.100981,0.006858349,0.050294876,0.039858956,0.016798794,0.00076358154,0.36290097,-0.030425154,-0.28359172,0.8871037
7563060000000,0.10051131,0.060917854,0.12153244,0.058184914,0.031001411,0.0013744468,0.36298454,-0.030432513,-0.2829785,0.887265
7563080000000,0.023156047,0.30091953,0.038256645,0.030085113,0.025198191,0.0033597588,0.36309794,-0.030536655,-0.28237778,0.8874065
7563100000000,-0.034537554,0.29156113,0.07530308,-0.008246681,0.0021380284,-0.0035124752,0.36314216,-0.030638728,-0.2822348,0.8874303
7563120000000,-0.01854062,0.20113373,0.08812809,-0.032223143,-0.022449298,-0.006414085,0.36314994,-0.030566514,-0.28250834,0.88734263
7563140000000,0.009433389,0.095425606,0.0411644,-0.02107485,-0.025045475,-0.0106901415,0.36314908,-0.03040899,-0.28290525,0.8872219
7563160000000,0.063860774,0.087777615,0.021424294,0.004581489,-0.020922136,-0.005955936,0.3631766,-0.03016514,-0.28305194,0.88717216
7563180000000,0.06285393,0.15515327,0.06810951,0.0047342055,-0.011453724,-0.0016798794,0.3631756,-0.029960249,-0.2830068,0.887194
7563200000000,0.031221628,0.17150736,0.055545807,0.0015271631,-0.007941248,-0.0012217305,0.36316174,-0.02985292,-0.28300792,0.8872029
7563220000000,0.028829217,0.19856787,0.058714867,-0.012064588,-0.0067195175,-0.0038179078,0.3631777,-0.029780129,-0.28303337,0.8871906
7563240000000,0.009353399,0.19886494,0.040724754,-0.032375857,-0.020922136,-0.00290161,0.36317733,-0.029735122,-0.28328705,0.8871114
7563260000000,0.0238446,0.11452818,0.0885582,-0.027488936,-0.021380283,-0.008399397,0.36315766,-0.029609518,-0.28367916,0.8869983
7563280000000,0.01144731,0.1266365,0.063331604,-0.0062613687,-0.019700404,-0.0067195175,0.36318454,-0.029451199,-0.28390086,0.8869216
7563300000000,0.031422377,0.1279149,0.047394753,0.004276057,-0.016798794,-0.0030543262,0.3631891,-0.029248636,-0.28392285,0.88691944
7563320000000,0.052571654,0.1108098,0.13033962,0.0012217305,-0.014813482,-0.00580322,0.36316612,-0.029060626,-0.28395396,0.8869251
7563340000000,0.03780985,0.106927395,0.040961266,0.0067195175,-0.0012217305,-0.009162978,0.36323953,-0.028926771,-0.2839512,0.8869003
7563360000000,0.015624285,0.24019957,0.022642136,-0.0022907446,0.00030543262,-0.0038179078,0.3633238,-0.028901353,-0.2838819,0.8868887
7563380000000,0.011913776,0.11482668,0.0731678,-0.006872234,-0.004581489,-0.0065668016,0.3633628,-0.028871877,-0.2839489,0.88685226
7563400000000,0.04093027,0.15697956,0.10161495,-0.004428773,-0.00580322,-0.004581489,0.36342427,-0.028818632,-0.28400177,0.8868119
7563420000000,0.025643706,0.14741611,0.032194138,-0.016340645,-0.01038471,-0.009162978,0.36347228,-0.028742863,-0.28408217,0.88676894
7563440000000,0.040293097,0.20268345,-0.008245468,-0.027030786,-0.030695979,0.002443461,0.3634416,-0.028628737,-0.28438377,0.88668853
7563460000000,0.03513515,-0.05604887,0.16209698,-0.005192355,-0.02565634,-0.008246681,0.36334077,-0.028408783,-0.2846901,0.8866385
7563480000000,-0.014200807,0.2744789,0.0009202957,-0.0154243475,-0.031154128,-0.010079277,0.3634115,-0.028156275,-0.28474215,0.886601
7563500000000,-0.039492726,0.30308437,0.039857864,-0.061850104,-0.065515295,-0.0062613687,0.36332992,-0.02784885,-0.28525993,0.8864777
7563520000000,0.097691774,-0.03188038,0.07705212,-0.040775254,-0.043829583,-0.010995574,0.3631912,-0.02743466,-0.28612497,0.8862686
7563540000000,0.07481265,0.12489319,-0.03911209,-0.0025961774,-0.010842858,0.0027488936,0.36320958,-0.027300863,-0.2863255,0.8862005
7563560000000,0.041284084,0.13468885,0.12880039,-0.009773844,-0.020158553,0.0,0.36313608,-0.027194481,-0.28632614,0.88623357
7563580000000,0.059353113,0.17565584,0.043071747,-0.028252518,-0.010231993,-0.0070249503,0.36312822,-0.027057003,-0.28656593,0.88616353
7563600000000,0.0009820461,0.25185013,0.0061244965,-0.043829583,-0.014049901,-0.007788532,0.36318237,-0.027108416,-0.28691474,0.8860269
7563620000000,0.062451243,0.067956924,0.11992931,-0.033750303,-0.01160644,-0.005955936,0.36317754,-0.027075687,-0.28738168,0.88587856
7563640000000,0.056298852,-0.00081443787,0.07452011,-0.00580322,0.007788532,-0.007941248,0.36324593,-0.027108867,-0.2875663,0.8857895
7563660000000,0.0071440935,0.16160393,0.014485359,0.008093964,0.007788532,0.0010690142,0.36333576,-0.027173098,-0.2874492,0.88578874
7563680000000,0.012039542,0.11803055,0.14008999,0.0061086523,0.0009162979,-0.0032070426,0.36332145,-0.02716158,-0.287343,0.8858295
7563700000000,0.013887525,0.20263672,0.012593269,-0.006414085,-0.010537425,-0.0009162979,0.36337617,-0.027101388,-0.28733617,0.88581103
7563720000000,0.0074954033,0.14067316,0.07807636,-0.009773844,-0.016646078,0.0010690142,0.3633121,-0.0269924,-0.28749546,0.88578904
7563740000000,0.023442507,0.08824539,0.04528141,0.001985312,-0.009468411,0.00076358154,0.3632833,-0.026855148,-0.28758585,0.88577557
7563760000000,0.038416624,0.14908361,0.04137039,0.0061086523,-0.008399397,0.0053450707,0.3632491,-0.026765022,-0.28754324,0.88580626
7563780000000,0.05847323,0.08524656,0.06279755,0.013439035,-0.005955936,0.008857546,0.36316323,-0.026652735,-0.28749478,0.88586056
7563800000000,0.04145229,0.14053679,0.051766396,0.016493361,0.008399397,0.006872234,0.3631067,-0.026615795,-0.28732267,0.88594073
7563820000000,0.05919993,0.17305946,0.03376198,0.013591751,0.009010263,0.009468411,0.36309236,-0.026662415,-0.28713864,0.8860048
7563840000000,0.058563948,0.06509304,0.14679718,0.015882496,0.020616703,0.0030543262,0.3630442,-0.02674274,-0.286978,0.8860742
7563860000000,0.009135246,0.13460398,0.034971237,0.02443461,0.02321288,0.00061086525,0.36315256,-0.026888365,-0.2866979,0.88611597
7563880000000,0.0590775,0.20180798,0.044677734,0.019547688,0.025198191,0.0096211275,0.36318585,-0.026982713,-0.28637654,0.88620347
7563900000000,0.022811532,0.11093187,0.08896732,0.010995574,0.02733622,0.0053450707,0.3631919,-0.027200324,-0.2861447,0.8862692
7563920000000,0.02016759,0.14342546,0.03235054,0.0154243475,0.026267206,0.0033597588,0.36325312,-0.027375322,-0.28593752,0.8863055
7563940000000,0.009123564,0.16283417,0.056141853,0.012217305,0.022143865,0.0071776668,0.36329222,-0.027539339,-0.28569478,0.88636285
7563960000000,0.034653187,0.11677313,0.05854225,0.013286319,0.016646078,0.0070249503,0.36329067,-0.027661376,-0.2855181,0.8864165
7563980000000,0.030086398,0.13548994,0.026432037,0.014660766,0.0143553335,0.007788532,0.36328676,-0.027749,-0.28531545,0.8864806
7564000000000,0.005772352,0.15741444,0.055727005,0.008246681,0.0050396384,0.0071776668,0.36325997,-0.027813232,-0.2851493,0.8865431
7564020000000,0.025690913,0.12648726,0.08322811,0.001985312,0.002443461,0.004581489,0.36321095,-0.02779826,-0.2851066,0.8865773
7564040000000,0.023373604,0.15437937,0.010564804,0.00290161,0.002443461,0.006872234,0.3631916,-0.02782029,-0.28507283,0.8865954
7564060000000,0.040053606,0.16131496,0.07844639,-0.0027488936,-0.0015271631,0.0041233404,0.36314735,-0.02781814,-0.28503844,0.8866247
7564080000000,0.0110013485,0.124940395,0.061792374,-0.0067195175,-0.007941248,0.00015271631,0.36312371,-0.027776321,-0.28510416,0.88661456
7564100000000,0.021556258,0.16567135,0.02233982,-0.0096211275,-0.005192355,0.00030543262,0.36311194,-0.027724085,-0.2851878,0.8865941
7564120000000,0.029868126,0.14418507,0.06879139,-0.016340645,-0.008246681,-0.0010690142,0.36311036,-0.0276961,-0.28531608,0.88655436
7564140000000,0.04696095,0.12684202,0.039607048,-0.012980887,-0.002443461,-0.00015271631,0.3631024,-0.02766494,-0.28548914,0.8865028
7564160000000,0.03333199,0.10176468,0.04677105,-0.004428773,0.0038179078,0.00045814895,0.36311206,-0.027692439,-0.2855412,0.8864812
7564180000000,0.013615608,0.12923479,0.010889053,-0.004276057,0.0036651916,0.00061086525,0.36314005,-0.02773248,-0.2855404,0.8864689
7564200000000,0.037631035,0.116113186,0.046200752,-0.0021380284,0.0030543262,0.0,0.36314136,-0.027755797,-0.28555673,0.8864623
7564220000000,0.017093897,0.13203382,0.057663918,-0.00580322,0.0016798794,-0.00076358154,0.36316586,-0.027775232,-0.28555703,0.88645154
7564240000000,0.041681647,0.116455555,0.053938866,-0.0067195175,-0.0016798794,-0.0010690142,0.3631872,-0.027781,-0.2856195,0.8864225
7564260000000,0.031813145,0.13566637,0.01829338,-0.0035124752,0.0009162979,0.0032070426,0.36319128,-0.027768645,-0.285664,0.8864069
7564280000000,-0.0005726814,0.10101938,0.08091354,-0.0016798794,-0.0015271631,-0.00030543262,0.3631718,-0.027786158,-0.2856657,0.8864138
7564300000000,0.016669631,0.10858297,0.04638195,0.0030543262,-0.0018325958,-0.0018325958,0.36319116,-0.02772628,-0.28566992,0.8864063
7564320000000,0.039001107,0.1573863,0.037822723,-0.0010690142,-0.00030543262,-0.0009162979,0.36321843,-0.02771506,-0.2856333,0.8864074
7564340000000,0.040519953,0.109378815,0.081243515,-0.003970624,-0.005192355,-0.00076358154,0.36322054,-0.02766816,-0.28568077,0.88639265
7564360000000,0.047850132,0.10098362,0.048023224,0.0018325958,0.00580322,-0.0013744468,1.0,0.0,0.0,0.0
7564380000000,0.0,0.0,0.0,0.0016798794,-0.0025961774,0.00061086525,1.0,0.0,0.0,0.0
