timestamp,accel_x,accel_y,accel_z,gyro_x,gyro_y,gyro_z,rot_w,rot_x,rot_y,rot_z
6968060000000,0.0,0.0,0.0,0.06490443,0.13912456,0.5001459,1.0,0.0,0.0,0.0
6968080000000,0.0,0.0,0.0,0.0,0.0,0.0,0.51050055,-0.023458783,-0.28507173,0.8109088
6968100000000,-0.42706406,1.0595605,0.16222763,0.37094793,0.27015516,0.52305335,1.0,0.0,0.0,0.0
6968140000000,-0.9146025,-0.738327,1.5600958,-0.2218968,0.14248432,0.48502702,0.5000342,-0.027981756,-0.27520224,0.8206379
6968160000000,-0.43004608,-0.64467573,0.9516401,-0.28038713,0.2228131,0.40210205,0.49693936,-0.032507204,-0.27672118,0.8218395
6968180000000,0.0,0.0,0.0,0.0,0.0,0.0,0.49438992,-0.036683764,-0.27711856,0.8230664
6968200000000,-0.28088248,0.32324553,-0.046954155,0.08170322,0.37323865,0.40240747,0.49184427,-0.040484175,-0.27488253,0.82516056
6968220000000,-0.3174609,0.07259226,0.30696106,0.0,0.0,0.0,0.49002564,-0.04437262,-0.27181804,0.82705563
6968240000000,-0.48185003,0.3099785,0.193614,0.062308256,0.47540587,0.25259277,0.4890762,-0.048951026,-0.2690371,0.82826763
6968260000000,-0.6704333,0.21474218,0.23927116,0.19517145,0.37980548,0.18127427,1.0,0.0,0.0,0.0
6968280000000,-0.6067433,0.16925716,0.50044537,0.0,0.0,0.0,0.4885818,-0.05477035,-0.26226395,0.83036476
6968300000000,-0.59597373,0.6642823,0.29245853,0.069485925,0.21609358,0.2854268,0.48785222,-0.05686678,-0.25986162,0.8314075
6968320000000,-0.36090732,0.6498561,0.26369858,-0.04153884,0.16325374,0.3494149,0.48547903,-0.05926179,-0.2583421,0.8331011
6968340000000,0.0,0.0,0.0,-0.14996742,0.049785517,0.3370449,1.0,0.0,0.0,0.0
6968360000000,-0.9218453,0.18804026,0.2893219,0.0,0.0,0.0,0.4791916,-0.06368708,-0.25903615,0.8361936
6968380000000,0.45690894,0.919435,0.1141386,-0.26343563,-0.070249505,0.29810223,0.47581154,-0.064679705,-0.26041785,0.83761716
6968400000000,-0.78048,0.25825977,0.13231659,-0.17944166,0.021838432,0.30970868,1.0,0.0,0.0,0.0
6968420000000,0.0,0.0,0.0,-0.052534413,0.14034629,0.25595254,1.0,0.0,0.0,0.0
6968440000000,0.0,0.0,0.0,-0.08750644,0.00992656,0.05207626,1.0,0.0,0.0,0.0
6968460000000,-0.7302697,0.12072992,0.22629929,0.0,0.0,0.0,0.47000608,-0.07105487,-0.26231086,0.83978486
6968480000000,0.0,0.0,0.0,0.14782938,0.09392053,0.0015271631,1.0,0.0,0.0,0.0
6968500000000,-0.6607616,0.74450874,0.22799492,0.07666359,0.021533,-0.018784106,1.0,0.0,0.0,0.0
6968520000000,-0.54373634,0.96116114,0.23169422,-0.046731193,-0.016646078,0.00030543262,0.47076967,-0.07125162,-0.25810483,0.8406432
6968540000000,-0.58013713,0.66453934,0.43818474,-0.19746219,-0.047494773,0.011301007,0.47059372,-0.07171468,-0.25860488,0.84054863
6968560000000,0.0,0.0,0.0,-0.3023783,-0.0804815,0.1348485,0.46984032,-0.07250076,-0.26110002,0.8401313
6968580000000,0.16974711,0.19947243,0.5448332,-0.34101552,-0.22586742,-0.11346822,1.0,0.0,0.0,0.0
6968600000000,-0.9673208,0.18049479,0.7823334,-0.28878653,-0.20998493,-0.027183503,0.46845445,-0.073498316,-0.26845664,0.8384984
6968620000000,-0.023386955,0.28710604,0.42578602,-0.13927728,-0.23548855,-0.11652254,1.0,0.0,0.0,0.0
6968640000000,-0.37475133,1.3197525,0.2479248,0.0,0.0,0.0,0.46865612,-0.0695194,-0.27115437,0.83785677
6968660000000,-0.36342442,0.8803959,0.37813187,-0.26374108,-0.15943582,0.08597928,1.0,0.0,0.0,0.0
6968680000000,-0.48637664,-0.21347046,0.5980387,-0.18570304,-0.13041973,0.03848451,0.46614778,-0.0691709,-0.27535045,0.8379164
6968700000000,-0.36340868,-0.3957386,0.075099945,-0.12690726,-0.07391469,-0.009010263,1.0,0.0,0.0,0.0
6968720000000,-0.4564286,-0.110519886,-0.39807415,-0.08017606,-0.0041233404,-0.09086621,0.4659297,-0.06909157,-0.27795184,0.83718497
6968740000000,-0.4605233,-0.038977146,-0.19562817,-0.05100725,0.034055736,-0.10919216,1.0,0.0,0.0,0.0
6968760000000,-0.46252823,0.36003304,0.27007008,-0.02977968,0.015577064,-0.08124508,0.46782488,-0.06949988,-0.27846098,0.8359241
6968780000000,-0.5031763,-0.043763638,0.47202587,-0.024129177,-0.033292156,-0.11148291,0.46848708,-0.06935403,-0.2789704,0.83539546
6968800000000,-0.44345462,-0.56261015,0.31217575,0.14278975,-0.053450707,-0.18677205,0.4695422,-0.06835194,-0.27898324,0.83488125
6968820000000,-0.16512012,-0.32368708,0.24636173,0.0,0.0,0.0,0.47159666,-0.065833196,-0.2770713,0.83456224
6968840000000,-0.14064765,0.28169298,0.3232174,0.376293,-0.05955936,-0.27855456,1.0,0.0,0.0,0.0
6968860000000,0.0,0.0,0.0,0.27855456,-0.113926366,-0.366061,0.47656807,-0.059555918,-0.27174136,0.8339619
6968880000000,0.0,0.0,0.0,0.29626966,-0.13530666,-0.39690968,1.0,0.0,0.0,0.0
6968900000000,-0.15839529,0.16905594,0.034843445,0.3036,-0.124005646,-0.3631594,0.48271093,-0.0524729,-0.2687415,0.8318743
6968920000000,0.0,0.0,0.0,0.46639562,-0.091477074,-0.3119994,0.4854059,-0.048914995,-0.26639858,0.83127624
6968940000000,0.0,0.0,0.0,0.47693303,-0.043066,-0.23640485,1.0,0.0,0.0,0.0
6968960000000,0.0,0.0,0.0,0.19425514,-0.015118915,-0.116675265,0.48938078,-0.042548135,-0.25946337,0.8314895
6968980000000,-1.0024538,1.6884694,-0.7855272,-0.12461651,0.03940081,0.054825157,1.0,0.0,0.0,0.0
6969000000000,-0.999297,1.4273744,-0.83211565,-0.268628,0.11148291,0.18188512,0.48855916,-0.04479156,-0.26095104,0.83138937
6969020000000,0.0,0.0,0.0,-0.3119994,0.21639901,0.30665436,1.0,0.0,0.0,0.0
6969040000000,-1.030139,0.6212921,0.24215794,-0.50640726,0.08552113,0.24816401,0.48402634,-0.054314975,-0.26105824,0.8334369
6969080000000,-0.55036676,-0.76168776,0.67627335,-0.376293,-0.18997909,-0.15851954,0.48390615,-0.05773308,-0.26965165,0.8305359
6969100000000,-0.4115988,-0.17578411,0.2938919,0.0,0.0,0.0,0.48463097,-0.056896757,-0.27372298,0.8288374
6969120000000,-0.35622823,-0.049332142,0.06255245,-0.16172658,-0.22861631,-0.16691893,0.48540097,-0.055513497,-0.2770923,0.82735974
6969140000000,-0.22707653,-0.4236579,0.12250519,0.077121735,-0.15577064,-0.11591168,0.4859641,-0.053689733,-0.27841827,0.8267041
6969160000000,0.0,0.0,0.0,0.20082195,-0.1160644,-0.087201014,0.48653728,-0.05153477,-0.27751064,0.8268092
6969180000000,-0.22884405,0.109740734,0.40835,0.14828753,-0.10598512,-0.021991149,0.48680627,-0.049493667,-0.27640593,0.82714564
6969200000000,-0.24701774,0.3192978,0.17835331,0.11148291,-0.07437284,0.040011674,1.0,0.0,0.0,0.0
6969220000000,-0.24854028,0.08454895,0.095443726,0.15149458,-0.033292156,0.087964594,0.48581293,-0.047422614,-0.27512386,0.8282775
6969240000000,-0.29141235,-0.06434059,0.19272137,0.25305092,-0.0016798794,0.11362094,0.48501134,-0.046695035,-0.27350932,0.8293228
6969260000000,-0.3616507,-0.25195456,0.350214,0.377362,0.0065668016,0.102319926,0.48421153,-0.045524165,-0.27073702,0.8307637
6969280000000,-0.39380717,0.12694263,0.27227688,0.38240165,-0.015271631,0.0759,0.48368055,-0.04374257,-0.2672055,0.8323106
6969300000000,0.0,0.0,0.0,0.29825497,-0.045662176,0.08093964,1.0,0.0,0.0,0.0
6969320000000,-0.38259435,0.17992544,0.1910553,0.0,0.0,0.0,0.4824095,-0.04050256,-0.26237667,0.83474493
6969340000000,-0.3229022,0.32347775,0.2551403,0.25625798,-0.047036625,0.04046982,1.0,0.0,0.0,0.0
6969360000000,-0.3630185,0.5819073,0.19220448,0.1067487,-0.067500606,0.01786781,0.48167306,-0.037585802,-0.25864545,0.83646935
6969380000000,-0.33805835,0.5249219,0.20242977,-0.006414085,-0.075289145,-0.0010690142,0.4814459,-0.036840063,-0.25872067,0.83661
6969400000000,-0.33833992,0.392406,0.20408821,-0.065515295,-0.07238753,-0.013897184,1.0,0.0,0.0,0.0
6969420000000,-0.3197391,0.32435417,0.16059494,-0.11499538,-0.07315111,-0.025961773,0.48129293,-0.036250357,-0.26055315,0.836155
6969440000000,-0.31856,0.24333715,0.20940685,-0.12736541,-0.07574729,-0.025503624,0.48126096,-0.03621644,-0.26199913,0.8357229
6969460000000,-0.34798586,0.24410963,0.19383049,0.0,0.0,0.0,0.48125166,-0.036140606,-0.2633169,0.83531725
6969480000000,-0.35359263,0.33661222,0.15789032,-0.15363261,-0.077121735,-0.013133603,0.4811449,-0.036175076,-0.2647394,0.8349276
6969500000000,0.0,0.0,0.0,0.0,0.0,0.0,0.48095632,-0.036208477,-0.2664432,0.8344926
6969520000000,-0.35220993,0.1685853,0.24330902,0.0,0.0,0.0,0.4808155,-0.03598977,-0.267793,0.83415127
6969540000000,-0.35247934,0.3952484,0.14904213,0.0,0.0,0.0,0.48069257,-0.035792544,-0.2691441,0.83379555
6969560000000,0.0,0.0,0.0,-0.17256944,-0.087659165,-0.0021380284,1.0,0.0,0.0,0.0
6969580000000,-0.32342422,0.19438362,0.22811985,0.0,0.0,0.0,1.0,0.0,0.0,0.0
6969600000000,-0.27339768,0.08613205,0.15519142,-0.0936151,-0.04917465,0.011148291,0.479827,-0.036155894,-0.27413812,0.8326507
6969620000000,-0.29065156,0.19147062,0.1678276,-0.054061573,-0.02733622,0.008399397,0.4796519,-0.036197543,-0.27471897,0.83255833
6969640000000,-0.29868996,0.25115776,0.1894207,0.0,0.0,0.0,0.47948015,-0.036324352,-0.27530417,0.8324584
6969660000000,-0.31105816,0.20977926,0.19274902,-0.05757405,0.0033597588,0.014660766,0.4791891,-0.037019283,-0.27622,0.8322919
6969680000000,-0.3003689,0.25638914,0.14906025,-0.05222898,0.013133603,0.021533,0.47907487,-0.037508298,-0.27654377,0.83222836
6969700000000,-0.40883327,0.30307293,0.16949749,-0.058490347,0.024281893,0.018478673,1.0,0.0,0.0,0.0
6969720000000,-0.35463345,0.30536366,0.1646576,-0.07422013,0.019700404,0.026267206,0.4787288,-0.038748793,-0.27753356,0.83204114
6969740000000,0.0,0.0,0.0,-0.10598512,0.010842858,0.025045475,0.478474,-0.039470218,-0.2784792,0.8318378
6969760000000,-0.32523537,0.18053102,0.17288303,-0.12690726,0.00580322,0.033444874,0.47810915,-0.040259704,-0.27943435,0.8316894
6969780000000,0.0,0.0,0.0,-0.106901415,0.014049901,0.043982297,0.47775665,-0.041070316,-0.27999496,0.83166385
6969800000000,-0.42602432,0.28810406,0.010790825,-0.08460484,0.047800206,0.05207626,0.47738943,-0.04236474,-0.28038082,0.83167976
6969820000000,-0.38345957,-0.27483988,-1.4249406,-0.16233744,0.15103643,0.12415836,0.47540927,-0.047763806,-0.28115782,0.832259
6969840000000,-0.19323993,0.79842377,0.6894016,-0.9502009,0.19349156,0.68798697,0.47011587,-0.052270304,-0.28391355,0.8340576
6969860000000,-0.3798504,0.13255835,0.6876583,-0.054061573,0.046120327,0.21197024,0.47032738,-0.052979056,-0.28557727,0.8333253
6969880000000,0.0,0.0,0.0,0.0,0.0,0.0,0.470249,-0.0537561,-0.2874249,0.83268434
6969900000000,-0.39018762,0.38937235,-0.08295345,-0.21273382,0.020463986,0.0364992,0.47008312,-0.055000823,-0.28843078,0.8323487
6969920000000,-0.3416884,-0.22473335,0.47380638,0.0,0.0,0.0,0.47003457,-0.05524813,-0.28811207,0.8324702
6969940000000,-0.36255467,0.15741587,0.03917885,0.0,0.0,0.0,0.47014993,-0.055331744,-0.28761113,0.83257276
6969960000000,0.0,0.0,0.0,0.017104227,0.033292156,0.0062613687,1.0,0.0,0.0,0.0
6969980000000,-0.37564301,0.0590415,0.3361864,0.015118915,-0.00870483,-0.006414085,0.47018647,-0.055102125,-0.2873648,0.83265233
6970000000000,-0.35708952,0.25874043,0.026683807,0.025350908,-0.027641652,-0.01282817,1.0,0.0,0.0,0.0
6970020000000,-0.32507372,0.20438242,0.19484043,0.0,0.0,0.0,0.47029126,-0.054128125,-0.28718296,0.83271986
6970040000000,-0.3422817,0.10157919,0.2813835,0.0,0.0,0.0,0.47037446,-0.05349903,-0.28723103,0.8326969
6970060000000,0.0,0.0,0.0,0.040317107,-0.039553523,-0.020158553,0.47044414,-0.053008422,-0.28699523,0.83277017
6970080000000,-0.32275474,0.375113,0.16700745,0.042760566,-0.043066,-0.02367103,0.47054845,-0.052402955,-0.2871177,0.83270735
6970100000000,-0.32625043,0.11982536,0.22615051,0.0,0.0,0.0,1.0,0.0,0.0,0.0
6970120000000,-0.30056703,0.22078133,0.112734795,-0.013744468,-0.05207626,-0.03176499,0.4707904,-0.05139103,-0.28774294,0.8324178
6970140000000,0.0,0.0,0.0,0.0,0.0,0.0,0.47096574,-0.050968803,-0.28782806,0.83231527
6971080000000,-0.29765046,0.25243902,0.13153648,0.0,0.0,0.0,1.0,0.0,0.0,0.0
6971100000000,0.0,0.0,0.0,0.0,0.0,0.0,0.47274777,-0.05353431,-0.28347412,0.83263814
6971140000000,0.0,0.0,0.0,0.0,0.0,0.0,0.47275606,-0.05365582,-0.28362283,0.83257496
6971180000000,0.0,0.0,0.0,0.0,0.0,0.0,0.4727103,-0.05360454,-0.28400984,0.8324722
6971200000000,0.0,0.0,0.0,0.0,0.0,0.0,0.47269467,-0.053630326,-0.2840706,0.8324587
6971220000000,-0.29511893,0.21281004,0.16038227,0.0,0.0,0.0,1.0,0.0,0.0,0.0
6971240000000,0.0,0.0,0.0,0.0,0.0,0.0,0.47266066,-0.053777535,-0.28425628,0.83240515
6971260000000,0.0,0.0,0.0,0.0,0.0,0.0,0.47266072,-0.053979807,-0.2845012,0.83230823
6971280000000,-0.2581817,0.15159512,0.1646328,-0.03176499,0.004276057,0.0013744468,1.0,0.0,0.0,0.0
6971340000000,0.0,0.0,0.0,-0.038026363,0.02031127,0.0030543262,1.0,0.0,0.0,0.0
6971360000000,-0.29460394,0.120363235,0.1577053,0.0,0.0,0.0,1.0,0.0,0.0,0.0
6971460000000,-0.2631662,0.18098879,0.1225214,0.0,0.0,0.0,1.0,0.0,0.0,0.0
6971500000000,0.0,0.0,0.0,0.027641652,0.0033597588,0.0065668016,1.0,0.0,0.0,0.0
6971540000000,-0.28079653,0.2047205,0.109023094,0.0,0.0,0.0,1.0,0.0,0.0,0.0
