timestamp,accel_x,accel_y,accel_z,gyro_x,gyro_y,gyro_z,rot_w,rot_x,rot_y,rot_z
7466580000000,1.3162236,1.7620668,-4.1822753,0.6545421,-0.17180584,2.8226557,0.5445376,0.016521318,-0.59399915,0.5919215
7466600000000,1.3346839,2.19739,-0.34612894,-1.0300715,-0.045356743,2.5784621,1.0,0.0,0.0,0.0
7466620000000,0.95098305,0.35967827,-0.70094824,-2.1305454,0.010995574,2.312125,0.51412016,-0.023157962,-0.6074209,0.6051313
7466640000000,0.6760359,-1.9678588,-0.670115,-1.1705705,-0.10522154,2.3248005,0.49961597,-0.047173418,-0.6188676,0.604286
7466660000000,0.8810048,-3.0318584,1.2240615,0.52198434,-0.24007004,2.3134995,0.4840759,-0.061471246,-0.6197989,0.61460644
7466680000000,1.3371048,-1.6793375,0.90513897,1.4059063,-0.1133155,2.2847888,0.46930522,-0.068363614,-0.61139154,0.63346624
7466700000000,1.6432276,-0.16222954,-0.1852088,1.1901182,-0.03924809,2.0407481,0.45595238,-0.07435146,-0.60052735,0.6526456
7466720000000,1.3260398,-0.46003246,-0.28221607,0.69043046,0.0038179078,1.7843374,0.44430172,-0.08157545,-0.5933253,0.6662631
7466740000000,0.7631295,-1.616415,1.0326896,0.9117164,-0.22937989,1.6113098,0.4333253,-0.0882565,-0.587971,0.6772963
7466760000000,0.61227155,-2.3800106,1.4308591,1.7319556,-0.27000242,1.3929255,0.42215744,-0.089014545,-0.5787299,0.69204855
7466780000000,0.58673763,-1.93645,0.34888792,1.545031,-0.13362677,1.0381655,0.4144541,-0.08672799,-0.5653647,0.70786214
7466800000000,0.6576369,-0.5412388,0.6519761,0.88346386,-0.22617286,0.9660834,0.40795225,-0.08593421,-0.55648875,0.7186867
7466820000000,0.75653434,-0.7457199,0.7047622,0.23243423,-0.31108314,0.7654142,0.40036395,-0.086975716,-0.5533721,0.7252058
7466840000000,0.4140947,-1.30861,0.83622503,-0.025198191,-0.3903429,0.57635134,0.39379078,-0.087770574,-0.5542872,0.7280048
7466860000000,0.8596368,-1.0754251,0.82654214,0.1815797,-0.40424007,0.46807548,0.38778815,-0.08777018,-0.55557126,0.7302447
7466880000000,1.0847869,-1.35678,-0.08987975,0.5510005,-0.39813143,0.3801109,0.38299462,-0.085442334,-0.55393213,0.73428476
7466900000000,1.3608873,-0.5062046,-0.036822796,1.0567969,-0.39003745,0.34773505,0.37873444,-0.08149523,-0.5490615,0.7405743
7466920000000,0.88363266,-0.5890589,0.18725348,1.0699304,-0.37614027,0.22159137,0.37561592,-0.075651586,-0.54137397,0.74840087
7466940000000,0.67904115,-0.44670105,0.79523325,0.74067414,-0.4129449,0.2237294,0.37263307,-0.0704146,-0.53585166,0.75435364
7466960000000,1.2973018,-0.55279636,0.7634134,0.36392298,-0.43554693,0.12797627,0.36937112,-0.066413276,-0.5331727,0.7582091
7466980000000,1.7085788,-0.5589256,0.20761967,0.67011917,-0.42638394,0.10827587,0.3665387,-0.062222283,-0.53257203,0.7603584
7467000000000,1.7148817,-1.6326284,-0.18459654,1.4358387,-0.27152961,-0.118966006,0.36492926,-0.055677906,-0.52531844,0.76665974
7467020000000,1.1519244,-1.1561003,-0.15568352,1.7366899,-0.10567969,-0.21303925,0.36677745,-0.046695907,-0.512874,0.7747607
7467040000000,1.0630536,-0.04840088,0.087138176,1.5636623,-0.033292156,-0.2312125,0.3689444,-0.039052837,-0.49974194,0.782696
7467060000000,1.0360937,0.24388742,-0.026948929,1.350623,-0.03573562,-0.32834008,0.3718632,-0.03162563,-0.4888083,0.7885329
7467080000000,1.1105678,-0.029226303,-0.32375288,1.3886495,0.003970624,-0.3662137,0.37516043,-0.024510138,-0.4787857,0.7933588
7467100000000,1.0096257,-0.030697823,-0.45653057,1.5693128,0.0571159,-0.37720928,0.3788551,-0.016932882,-0.46723032,0.79867256
7467120000000,0.5013242,0.26641512,-0.24721289,1.6934712,0.039553523,-0.38423425,0.3824054,-0.009414672,-0.45376888,0.8048424
7467140000000,0.0062339306,0.3373289,-0.07635164,1.753336,0.030848695,-0.36193767,0.38573307,-0.0012478128,-0.43976298,0.8110592
7467160000000,-0.25033307,0.34434175,0.010577202,1.9104811,0.04260785,-0.30787608,0.38852772,0.0069259484,-0.4247972,0.8176465
7467180000000,-0.34449768,0.56663275,-0.29326057,2.059685,0.110872045,-0.22434026,0.3908266,0.015317159,-0.40808156,0.82491773
7467200000000,-0.4873457,1.1925325,-0.6900854,2.0344868,0.15882497,-0.09666943,0.39231476,0.022894235,-0.39009932,0.83269894
7467220000000,-0.69198084,1.4287305,-0.70285654,1.7736472,0.12705997,-0.027794369,0.39272535,0.029337484,-0.37333265,0.8399577
7467240000000,-0.73624563,1.174583,-0.6031532,1.3860532,0.17654006,0.014202617,0.39278325,0.034431666,-0.35963193,0.8456954
7467260000000,-0.6363311,1.360105,-0.68974495,1.0425943,0.29825497,0.08659015,0.3927468,0.036832076,-0.34864828,0.8501987
7467280000000,-0.7981734,1.4704509,-0.55934143,0.66752297,0.3213151,0.1217149,0.39266434,0.03682196,-0.34020624,0.8536503
7467300000000,-0.89739704,0.85840464,-0.19440126,0.33582318,0.35628715,0.14126259,0.39218032,0.035504855,-0.33500338,0.85598284
7467320000000,-0.8864052,0.52224636,0.028232574,0.11866058,0.37216964,0.18234327,0.3920418,0.03236189,-0.33193836,0.85736394
7467340000000,-1.1493524,0.19611216,0.061969757,-0.10415252,0.37216964,0.24022275,0.3870923,0.029721811,-0.33006707,0.8604255
7467360000000,-1.4647667,0.15244007,-0.083545685,-0.4176791,0.4382958,0.34468073,0.38554534,0.023021389,-0.33025634,0.86125237
7467380000000,-1.5739641,0.8418164,-0.2920556,-0.73853606,0.47433686,0.3549127,0.3788435,0.017186714,-0.33345494,0.86312807
7467400000000,-1.4529451,0.4300151,-0.44976377,-1.2194397,0.40622538,0.23808473,0.37776875,0.008422506,-0.3402176,0.86108756
7467420000000,-1.2151451,-1.06814,0.42426586,-1.1711814,0.2751948,0.13164146,0.377531,-0.00046249005,-0.3507619,0.8569926
7467440000000,-0.18077087,-2.210966,2.6205268,0.2843578,0.20616703,0.19165897,0.377479,-0.0047120745,-0.35326818,0.8559726
7467460000000,-1.3483698,-2.3495584,2.1984496,0.42332962,0.114689946,0.22250767,0.37570924,-0.00466392,-0.34787518,0.858955
7467480000000,-0.73102975,0.21902895,0.8619714,0.09392053,-0.08628472,-0.02367103,0.37493885,-0.0041441275,-0.34482425,0.860523
7467500000000,-0.30885983,0.97448254,-0.03778696,-0.1133155,-0.22876903,0.0076358155,0.374853,-0.0026155047,-0.34634015,0.8599576
7467520000000,0.027501345,0.46447468,-0.21327448,-0.074830994,-0.22540927,0.04932737,0.37356076,-0.0010537208,-0.34835324,0.85971004
7467540000000,0.04809785,0.008508205,0.0033540726,0.00015271631,-0.14553864,0.06719518,0.37242553,0.0002936488,-0.34934032,0.85980266
7467560000000,-0.032970905,-0.31688023,0.17947102,0.12003502,-0.064446285,0.10476339,0.3713261,0.0009921801,-0.34927574,0.8603037
7467580000000,0.026207447,-0.36724424,0.09561777,0.32574388,0.035888333,0.14782938,0.37021416,0.0015332577,-0.34742942,0.8615288
7467600000000,0.032791138,-0.061514854,0.021187305,0.46761733,0.12461651,0.17165314,0.36902237,0.0017155708,-0.34334853,0.8636732
7467620000000,-0.011805773,-0.20503283,0.23428202,0.4990769,0.18692477,0.08597928,0.36831692,0.0016819262,-0.338439,0.8659094
7467640000000,-0.062045574,-0.59399796,0.30699825,0.59483004,0.267559,-0.01572978,0.36885804,0.0015420136,-0.33304182,0.86776984
7467660000000,-0.07504749,-0.5931587,0.10287619,0.8312349,0.3295618,-0.0917825,0.3704666,0.0016611133,-0.32579762,0.8698321
7467680000000,-0.14151311,-0.34882975,0.10426855,1.0352639,0.33307427,-0.10949759,0.37253994,0.002641843,-0.31604746,0.8725371
7467700000000,-0.17613459,-0.08921862,0.17253876,1.0746647,0.32330042,-0.100334615,0.37447244,0.0041651465,-0.30532113,0.8755182
7467720000000,-0.21770358,0.28001165,0.005549431,1.0392345,0.30405816,-0.08353582,0.37617067,0.0056836535,-0.2947873,0.8783871
7467740000000,-0.20225191,0.36112833,0.051571846,0.9671524,0.27107146,-0.050549097,0.37755576,0.0071169636,-0.28490967,0.8810377
7467760000000,-0.15506315,0.32623196,0.07289982,0.86590147,0.25992316,-0.02031127,0.37845677,0.008419874,-0.2757951,0.88353646
7467780000000,-0.18353271,0.47300673,0.07869911,0.70325863,0.2396119,0.013286319,0.37915802,0.009101167,-0.26787916,0.885662
7467800000000,-0.2904619,0.6427984,0.17576313,0.49648073,0.14676037,0.028405234,0.37937936,0.009551994,-0.261671,0.8874167
7467820000000,-0.25629163,0.55712223,0.26854897,0.26725355,0.06963864,0.018478673,0.37940216,0.010009779,-0.25788152,0.88851047
7467840000000,-0.1813711,0.18354034,0.12393284,0.17898351,0.04886922,-0.005497787,0.37944844,0.010263163,-0.25613108,0.8889941
7467860000000,-0.17905712,-0.009446144,0.10543823,0.24572055,0.047494773,-0.013439035,0.37968403,0.01060475,-0.2542187,0.88943833
7467880000000,-0.15658319,0.19206715,0.12253952,0.23335053,0.03894266,0.0070249503,0.3798375,0.011265343,-0.2516181,0.8901038
7467900000000,-0.21858203,0.4034791,0.080020905,0.14721853,0.013744468,0.00870483,0.37977824,0.011699481,-0.24977952,0.8906413
7467920000000,-0.15976071,0.45110798,0.023719788,0.069027774,-0.009162978,0.008246681,0.37969378,0.012068582,-0.24887341,0.890926
7467940000000,-0.23069572,0.33319807,0.15323544,0.008399397,-0.033292156,-0.004886922,0.37961873,0.012367748,-0.24863635,0.89101994
7467960000000,-0.19261813,0.18365979,0.15973663,-0.012217305,-0.049785517,-0.0096211275,0.37959844,0.012744758,-0.24889864,0.8909502
7467980000000,-0.18897128,0.10169363,0.07498646,0.0070249503,-0.050396383,-0.0009162979,0.37954876,0.013191256,-0.24914798,0.8908951
7468000000000,-0.15034556,0.15263581,0.08080673,0.03313944,-0.049021937,0.012217305,0.3793629,0.01370795,-0.24912727,0.89097226
7468020000000,-0.080649614,0.12923193,0.07406044,0.04550946,-0.022449298,0.01740966,0.37911978,0.014179038,-0.2488598,0.8911431
7468040000000,-0.09982014,0.21369767,0.049524307,0.04505131,-0.006872234,0.015882496,0.3789366,0.014395469,-0.24847165,0.89132583
7468060000000,-0.16320157,0.15728283,0.17493153,0.04627304,0.005192355,0.014202617,0.37879348,0.014517703,-0.2480573,0.8915001
7468080000000,-0.1635797,0.013924122,0.22153664,0.08200866,0.00992656,0.013286319,0.37870136,0.014629637,-0.24750337,0.89169127
7468100000000,-0.12676477,0.20074749,0.09622097,0.09819659,0.021380283,0.017256944,0.37860498,0.0148187075,-0.24650109,0.89200675
7468120000000,-0.14993453,0.37388182,-0.018212318,0.06856962,0.01572978,0.021227567,0.37847385,0.014918835,-0.245656,0.8922938
7468140000000,-0.07009864,0.02164936,0.12146759,0.086437434,0.038789943,0.029474247,0.3782883,0.014949315,-0.2449956,0.8925535
7468160000000,-0.12747383,-0.008245945,0.1447382,0.12308934,0.051465396,0.03756821,0.37810674,0.014780131,-0.24382307,0.8929542
7468180000000,-0.19667912,0.28186178,0.110183716,0.11056661,0.026267206,0.03145956,0.37786397,0.014796819,-0.24245779,0.8934283
7468200000000,-0.20907545,0.54795146,0.015890121,0.03268129,-0.0067195175,0.0154243475,0.37766445,0.014942699,-0.24170406,0.8937144
7468220000000,-0.18536425,0.22728276,-0.0065965652,-0.0015271631,-0.03970624,-0.008093964,1.0,0.0,0.0,0.0
7468240000000,-0.11491966,-0.044002056,0.12435055,0.053145275,-0.02977968,0.00015271631,0.37761024,0.015656605,-0.24189141,0.8936745
