timestamp,accel_x,accel_y,accel_z,gyro_x,gyro_y,gyro_z,rot_w,rot_x,rot_y,rot_z
6953740000000,0.3122399,-0.02508068,-0.1810894,0.0,0.0,0.0,1.0,0.0,0.0,0.0
6953760000000,0.29142916,-0.053856373,-0.07581949,0.04550946,0.0013744468,-0.013897184,0.58458495,-0.085875764,-0.28407618,0.75510705
6953780000000,0.27384436,-0.057502747,-0.07223797,0.06627888,-0.0022907446,-0.024587326,0.584778,-0.08549016,-0.2836832,0.755149
6953800000000,0.26995826,-0.011244297,-0.1753273,0.0,0.0,0.0,0.5850532,-0.084947824,-0.28319758,0.75517935
6953820000000,0.27668238,0.05373001,-0.11926842,0.058643065,-0.009315695,-0.02611449,0.5853071,-0.0844542,-0.28280082,0.7551866
6953840000000,0.3111248,0.0121097565,-0.074326515,0.06994407,-0.012675454,-0.028863383,0.58551663,-0.08391635,-0.28246266,0.7552108
6953860000000,0.33973753,-0.0658927,-0.16263771,0.08109236,-0.002443461,-0.028405234,0.58579785,-0.083300665,-0.2819911,0.75523704
6953880000000,0.0,0.0,0.0,0.09392053,0.008246681,-0.014660766,1.0,0.0,0.0,0.0
6953900000000,0.2998433,-0.08208561,-0.066028595,0.107359566,0.010079277,-0.0027488936,0.58621854,-0.08219633,-0.28055272,0.75556725
6953920000000,0.25610697,-0.064406395,0.04045105,0.10720685,0.016646078,-0.0022907446,0.58648884,-0.08110239,-0.27881086,0.7561202
6953940000000,0.22243118,-0.32502747,0.25872135,0.12186762,-0.0062613687,-0.0015271631,0.586632,-0.07998858,-0.27778253,0.75650615
6953960000000,0.27765942,-0.124782085,-0.022175789,0.2096795,-0.03573562,-0.031154128,0.5871805,-0.0780537,-0.27608377,0.7569046
6953980000000,0.0,0.0,0.0,0.0,0.0,0.0,0.5879194,-0.07655098,-0.27487728,0.7569235
6954000000000,0.54133797,-0.004968643,0.17418957,0.08750644,-0.03023783,-0.06307184,0.58818406,-0.076395914,-0.2752342,0.7566039
6954020000000,0.7644819,-0.19882345,0.4515438,-0.098043874,0.012064588,-0.024281893,0.5882726,-0.07798062,-0.27626768,0.7559964
6954040000000,0.6091951,-0.024540424,0.5571728,-0.27091873,0.1160644,-0.011759156,0.5885511,-0.081549086,-0.27842996,0.75460863
6954060000000,0.50079656,-0.27763224,1.1921043,-0.5768095,0.15515977,-0.05207626,1.0,0.0,0.0,0.0
6954080000000,1.0187814,-1.2575226,1.8133268,0.0,0.0,0.0,0.5908079,-0.09487743,-0.296311,0.7444086
6954100000000,0.0,0.0,0.0,-1.829236,-0.17195857,-0.5529858,0.5931758,-0.10303429,-0.31291512,0.73458195
6954120000000,2.4664564,-1.716361,3.1394424,-1.9205604,-0.116675265,-0.7664832,0.5974716,-0.11044694,-0.32844484,0.723155
6954140000000,2.3659093,-1.2736764,3.4260006,-1.8866574,-0.19440787,-1.0117456,1.0,0.0,0.0,0.0
6954160000000,2.3056033,-1.548984,2.99892,-1.9504927,-0.42103887,-1.2145529,0.6075681,-0.11925809,-0.3639923,0.6958076
6954180000000,2.2478323,-2.0572743,2.1936216,0.0,0.0,0.0,0.6135223,-0.12151223,-0.38452873,0.67894244
6954200000000,1.9363832,-1.7378011,1.3195963,-2.297617,-0.6646214,-1.7421877,0.6206061,-0.12501502,-0.40776014,0.65799016
6954220000000,1.2203395,-1.7311778,1.373097,-2.7229319,-0.674548,-2.0529654,0.62822473,-0.12932836,-0.43390346,0.63272095
6954240000000,0.5326271,-1.9790535,1.8732104,-2.9649873,-0.72189003,-2.3493876,1.0,0.0,0.0,0.0
6954260000000,0.084395885,-2.470438,1.8867712,0.0,0.0,0.0,0.64614654,-0.13119577,-0.4822381,0.5768265
6954280000000,-0.15267897,-2.9580393,1.6110239,-2.1270328,-0.6747007,-2.809064,0.6570683,-0.12433164,-0.50006133,0.5502196
6954300000000,-0.6399002,-3.1477542,2.200399,-1.4541647,-0.68294734,-3.048523,0.6694257,-0.11162116,-0.5140984,0.52451193
6954320000000,-1.2328768,-3.8477516,2.654056,-0.62781674,-0.7093673,-3.275765,0.6807231,-0.08827675,-0.5230109,0.50525534
6954340000000,0.0,0.0,0.0,0.48288897,-0.77366084,-3.4891095,0.6951034,-0.057883773,-0.5258178,0.48682278
6954360000000,0.0,0.0,0.0,0.0,0.0,0.0,0.7056704,-0.015088868,-0.5242931,0.47635946
6954380000000,-1.8486929,-5.5004787,0.67607737,2.357329,-0.9295842,-4.007276,0.7198881,0.03075656,-0.51729685,0.46175665
6954400000000,-1.9284391,-4.6503057,-0.7560048,3.2406402,-0.9263771,-4.2169557,0.7286288,0.08703755,-0.50457513,0.45489395
6954420000000,-2.2591267,-3.411583,-2.1437492,3.7782016,-0.9440922,-4.3586764,0.7391435,0.14169772,-0.48898357,0.4410031
6954440000000,-2.4232311,-2.4087415,-3.378316,3.858683,-0.89461213,-4.390136,0.74440986,0.19748649,-0.47031435,0.43087995
6954460000000,-2.3331852,-1.8693004,-4.4592996,3.671911,-0.729984,-4.2404737,0.751256,0.24493153,-0.45106965,0.4149208
6954480000000,-2.492971,-1.5743577,-4.829008,3.3460143,-0.39935315,-4.0457606,0.7558673,0.28910077,-0.42790484,0.40247095
6954500000000,-2.5493984,-1.186614,-4.0740056,3.2253685,-0.01786781,-3.872122,0.7610076,0.32916299,-0.4021971,0.38827392
6954520000000,-2.0546017,-0.051341772,-4.5079894,3.4686456,0.2837469,-3.5601227,0.7628326,0.367613,-0.37377083,0.37847415
6954540000000,-1.6656342,1.2612929,-4.680832,3.4645221,0.5852089,-3.0801353,0.76346576,0.40028933,-0.34480453,0.37148115
6954560000000,-2.092599,1.4033527,-3.9194007,3.111442,0.9060659,-2.7252226,0.76411504,0.42713884,-0.31573486,0.36604944
6954580000000,-2.216732,1.4237776,-3.5320501,2.8231137,1.1050552,-2.3399193,0.7633039,0.44994515,-0.2878827,0.36337325
6954600000000,-1.7251077,2.2012792,-3.3496037,2.5960245,1.169807,-1.8429805,0.7608886,0.47060743,-0.2624496,0.36152107
6954620000000,-1.4814591,2.662496,-2.9500656,1.9663752,1.1794281,-1.3796391,0.75729555,0.49909303,-0.23516497,0.34943786
6954640000000,-1.2050776,1.6151414,-2.6814897,1.0267117,1.1818715,-1.0062478,0.7570183,0.51202124,-0.21728092,0.34285066
6954660000000,-1.3734736,-0.5948281,0.1467421,0.3275765,1.0789407,-0.8167268,0.7604957,0.5118258,-0.20563938,0.34262663
6954680000000,-1.2243476,-2.1464505,2.083591,0.55955255,0.79137594,-0.6392705,0.7584949,0.518482,-0.19478707,0.34339467
6954700000000,-0.5853791,-2.321518,0.98705244,1.5575536,0.6032294,-0.49846604,0.7516241,0.5314245,-0.18192314,0.34576482
6954720000000,0.011831284,-1.8095727,-0.4617486,1.6907222,0.45753807,-0.5992588,0.74737287,0.5420151,-0.17183574,0.34369478
6954740000000,0.20164776,-1.6629462,-0.7067516,1.1830933,0.2950479,-0.64843345,0.7448215,0.5493617,-0.1635057,0.34162635
6954760000000,-0.6788368,-2.5998044,0.17206264,0.9737192,0.17302758,-0.6702719,0.74221706,0.55778366,-0.156875,0.33672175
6954780000000,-1.4128952,-2.79213,1.3375161,1.5118915,-0.008857546,-0.6899723,0.73290443,0.57402676,-0.1470215,0.3342591
6954800000000,-1.1356354,-1.4522734,0.39952946,2.4040601,-0.13057245,-0.6747007,0.72066325,0.5942896,-0.13729174,0.32956848
6954820000000,-0.8027539,-0.20912218,-0.41929483,2.4408648,-0.24740042,-0.733191,0.7096206,0.61186975,-0.12783307,0.32513508
6954840000000,-0.7883024,0.24588156,-0.35368407,1.7831156,-0.3407101,-0.768163,0.7047198,0.6229155,-0.124215506,0.3160963
6954860000000,-0.7954607,0.36484623,-1.1533158,1.0497719,-0.3567453,-0.60048056,0.6990043,0.6343177,-0.11891077,0.30804908
6954880000000,-1.2032294,0.2393341,-1.596193,0.6094908,-0.205098,-0.38362336,0.6981719,0.63875973,-0.117979035,0.30103648
6954900000000,-1.730279,-0.060391426,0.25012207,0.43951756,-0.061239243,-0.410196,0.6959439,0.6426888,-0.11433857,0.29923218
6954920000000,-0.65198755,0.35485172,-0.1770817,0.6795876,0.0027488936,-0.16722436,0.6924152,0.64751154,-0.113946654,0.29716355
6954940000000,0.2147069,0.26792145,-1.4915153,0.6398814,0.059406646,-0.011453724,0.6863508,0.6539635,-0.113064885,0.29744032
6954960000000,0.45642185,-0.340343,1.0274141,0.112399206,0.10995574,-0.042455133,0.6898926,0.6503348,-0.11619574,0.29599237
6954980000000,0.4710102,-0.6444926,1.3102628,-0.23075435,-0.016035212,-0.012980887,0.69718295,0.63636106,-0.12343256,0.3061777
6955000000000,0.44484377,-0.387105,0.91593385,-0.098043874,-0.10827587,0.027183503,0.69792414,0.6360575,-0.12599155,0.30407053
6955020000000,0.34033585,-0.5085721,-0.050551772,0.08857546,-0.17088956,-0.076052725,0.6968398,0.6380451,-0.12592018,0.30241844
6955040000000,0.16405821,-0.9887581,-0.5770676,0.22892176,-0.16829337,-0.14049901,0.6958937,0.64034736,-0.1255555,0.29987177
6955060000000,-0.11787748,-0.36087132,-0.29446387,0.18570304,-0.11957687,-0.21639901,0.6957032,0.6416732,-0.124383785,0.29796192
6955080000000,-0.5540323,-0.46837807,0.64974856,0.032223143,-0.09025534,-0.1994475,0.6970314,0.64171,-0.12494906,0.2945224
6955100000000,-0.8524585,-0.3415804,1.0925589,-0.063988134,-0.1572978,-0.2582433,0.6982075,0.64201796,-0.12421,0.29136074
6955120000000,-0.3203473,0.048973083,-0.20727193,0.1253801,-0.20326541,-0.23869559,0.69703865,0.64450186,-0.12428542,0.28863057
6955140000000,0.2264967,-0.18276691,-0.17769706,0.3454443,-0.22021692,-0.09712757,0.6939359,0.648424,-0.124012865,0.28743714
6955160000000,0.32975626,-0.09565258,0.40747035,0.49754974,-0.15974127,-0.089186326,0.6909056,0.65220815,-0.12311565,0.28655982
6955180000000,0.18361855,-0.15382528,-0.3901446,0.41706824,-0.09819659,-0.0076358155,0.68893415,0.6541737,-0.12317243,0.2868017
6955200000000,0.30034447,0.2515726,0.26154292,0.012217305,-0.068264194,0.021685716,0.69017804,0.6532618,-0.124749295,0.28520352
6955220000000,0.42968512,-0.011869431,-1.1934643,-0.098807454,-0.05513059,-0.02076942,0.68688554,0.656289,-0.1274607,0.2850032
6955240000000,0.064992905,-0.520648,-0.2319681,-0.28787026,0.15500705,-0.07086037,0.69083285,0.65259385,-0.12650378,0.28437325
6955260000000,0.19853926,-0.5460925,0.2580278,-0.38530326,0.23930646,-0.0804815,0.6926509,0.65017414,-0.12534823,0.2860004
6955280000000,-0.029587746,-0.02697277,0.90680206,-0.19349156,0.25396723,-0.0018325958,0.694933,0.64773023,-0.1250689,0.28613216
6955300000000,-0.29111433,-0.45809793,1.1777065,-0.28985557,0.1684461,-0.04016439,0.69802547,0.64417696,-0.12465974,0.2868041
6955320000000,-0.18840694,-0.4424286,0.8478861,-0.19135354,0.082924955,-0.032528576,0.69920284,0.6431168,-0.12513085,0.28610927
6955340000000,-0.25557756,0.07371521,0.28997576,-0.11957687,0.04184427,-0.015271631,0.7004691,0.6417649,-0.12548007,0.28589436
6955360000000,-0.06330013,-0.2227993,-0.06465137,-0.36254853,-0.009468411,-0.02367103,0.7045363,0.6378948,-0.12826133,0.283316
6955380000000,0.47304106,-0.63609314,-0.16875446,-0.59315014,-0.019700404,-0.047036625,0.7086591,0.6335229,-0.12974504,0.28216523
6955400000000,0.7423382,-0.5979414,0.1580379,-0.5555819,0.022907447,-0.0627664,0.7117492,0.62996256,-0.1313675,0.2816073
6955420000000,0.79536676,0.060700417,0.3995365,-0.2855795,0.03940081,-0.08078693,0.7126356,0.62920475,-0.1310207,0.28122148
6955440000000,0.4365945,0.6719961,0.15709269,0.0,0.0,0.0,0.7123944,0.6296087,-0.1308133,0.28102493
6955460000000,0.32286406,0.8359003,0.26566446,-0.011301007,-0.009162978,-0.008857546,0.712991,0.6289187,-0.13128042,0.28083906
6955480000000,0.0,0.0,0.0,-0.21991149,-0.017562376,0.010079277,0.715081,0.62656593,-0.1325372,0.2801931
6955500000000,0.0,0.0,0.0,-0.3575089,-0.018784106,0.01695151,0.7172247,0.6239482,-0.13390411,0.27990538
6955520000000,0.0,0.0,0.0,-0.34208453,-0.010079277,0.062002823,1.0,0.0,0.0,0.0
