timestamp,accel_x,accel_y,accel_z,gyro_x,gyro_y,gyro_z,rot_w,rot_x,rot_y,rot_z
7528780000000,0.0,0.0,0.0,0.19394971,0.4008803,0.08827003,0.67504346,0.5282395,0.48408738,-0.17589414
7528800000000,0.0,0.0,0.0,0.06154467,0.38652498,0.13561209,0.67288655,0.53009766,0.4858506,-0.17369348
7528820000000,0.0,0.0,0.0,0.076816306,0.34804046,0.15561792,1.0,0.0,0.0,0.0
7528840000000,-0.19098663,-0.28490305,0.043641508,0.0,0.0,0.0,0.6697487,0.53218997,0.49042296,-0.16642062
7528860000000,0.0,0.0,0.0,0.23411411,0.19776763,0.13362677,0.66793185,0.53340745,0.49263412,-0.163264
7528880000000,0.29624844,0.5413346,-0.3325833,0.06246097,0.16172658,0.13103059,0.6663761,0.535586,0.492709,-0.1622605
7528900000000,0.08451891,0.43848276,0.25658524,0.0,0.0,0.0,0.66664106,0.5344807,0.49479684,-0.1584176
7528920000000,0.092829704,-0.0841856,0.76374334,0.04184427,0.10827587,0.0870483,0.66652924,0.5348462,0.4949458,-0.15718451
7528940000000,-0.058278084,-0.0801692,0.39036566,0.13530666,0.116217114,0.08582657,0.6659622,0.5346619,0.49676445,-0.15445444
7528960000000,0.0,0.0,0.0,0.13912456,0.08170322,0.04734206,1.0,0.0,0.0,0.0
7528980000000,0.20672989,0.41412306,0.056183577,0.0,0.0,0.0,0.66432106,0.53580534,0.49839044,-0.15230642
7529000000000,0.12561655,0.32269478,0.39224356,0.0,0.0,0.0,0.6641278,0.5359825,0.49870175,-0.15150444
7529020000000,0.22814465,0.015341759,0.46779698,0.02321288,0.07803804,0.02687807,0.6641313,0.5353452,0.49982372,-0.15003802
7529040000000,0.092997074,0.06978226,0.32481036,0.06811147,0.124005646,0.033750303,0.6633251,0.53608865,0.50026196,-0.14948848
7529060000000,-0.06839943,0.104935646,0.18686956,0.021380283,0.102319926,0.015118915,0.662858,0.5354043,0.50229627,-0.14717342
7529080000000,0.13972712,0.11639738,0.41368353,0.0,0.0,0.0,1.0,0.0,0.0,0.0
7529100000000,0.30727816,0.025928974,0.40004426,0.0,0.0,0.0,0.66199076,0.5346005,0.50516844,-0.14413717
7529120000000,0.25249195,-0.0045666695,0.17065322,0.0,0.0,0.0,0.6609548,0.53532517,0.505916,-0.14357856
7529140000000,0.06714964,0.051267624,0.13882428,0.095753126,0.12950343,0.024587326,0.66008186,0.5349698,0.50805885,-0.1413347
7529160000000,0.0,0.0,0.0,0.08735373,0.12339478,0.04932737,0.65904444,0.5359264,0.5084903,-0.14099966
7529180000000,0.04218483,0.018428802,0.22471797,0.09162979,0.114689946,0.05131268,0.6582451,0.53614724,0.5097671,-0.1392735
7529200000000,0.0,0.0,0.0,0.058184914,0.081397794,0.040317107,0.65737224,0.53705853,0.5100375,-0.13889462
7529220000000,0.17245102,0.11307287,0.09761387,0.0106901415,0.089949906,0.057421334,0.6572238,0.5363337,0.5115816,-0.13670148
7529240000000,-0.12063074,0.05073309,0.13238466,0.010995574,0.065515295,0.05955936,0.6568236,0.53683084,0.5118162,-0.13579322
7529260000000,-0.09888315,0.20618868,0.15163189,-0.019700404,-0.014202617,0.050549097,0.6569681,0.5363981,0.5124372,-0.13445483
7529280000000,0.0,0.0,0.0,-0.01160644,-0.048716504,0.05955936,1.0,0.0,0.0,0.0
7529300000000,-0.23961973,-0.01897955,0.31533593,0.029932396,-0.11530081,0.07727446,0.6581291,0.5355586,0.5123063,-0.13260978
7529320000000,-0.34544897,-0.19438791,0.07728076,0.009468411,-0.18661933,0.11377365,0.6588728,0.5360228,0.5107524,-0.13303472
7529340000000,0.0,0.0,0.0,-0.038789943,-0.23625213,0.21594086,1.0,0.0,0.0,0.0
7529360000000,-1.1678758,-0.6860914,0.32413375,-0.11453723,-0.31413746,0.37507126,0.6626415,0.5361263,0.50626695,-0.13102938
7529380000000,-1.6866393,-1.1682172,0.47727966,-0.25900686,-0.48579058,0.56673026,0.6663888,0.5358502,0.5023344,-0.12826043
7529400000000,-2.0942912,-1.8058867,0.6799721,-0.35033122,-0.66446865,0.82344633,0.6719908,0.536279,0.49513394,-0.12520243
7529420000000,-2.608172,-2.0070906,0.45319113,-0.24480425,-0.80741113,1.094976,0.67886007,0.5372101,0.48590538,-0.12020914
7529440000000,-2.4703364,-1.9514861,-0.7171403,0.01740966,-0.8697194,1.359786,0.6849708,0.54135346,0.4735522,-0.11618898
7529460000000,-1.9896498,-1.7254348,-2.0571814,-0.1647809,-0.7823657,1.7052304,1.0,0.0,0.0,0.0
7529480000000,-2.4152074,-1.0510545,-2.6310039,-0.5852089,-0.9286679,2.0496056,0.69791985,0.55323416,0.44389486,-0.098981656
7529500000000,-1.9023595,-1.356492,-2.656149,-1.0395399,-1.0862712,2.2548563,0.70912355,0.55540663,0.42556974,-0.086935095
7529520000000,-1.4553847,-1.3336816,-1.4843428,-0.90392786,-1.2185235,2.5870142,0.7165794,0.55675286,0.41310918,-0.076688565
7529540000000,-2.3251314,-0.008034229,-0.41277617,-0.72387534,-1.2504412,3.2391129,0.72758245,0.56212974,0.38851812,-0.060725264
7529560000000,-4.55065,1.0439634,-0.14000475,-0.72127914,-1.67316,3.7954586,0.7386083,0.5696137,0.3583887,-0.03944045
7529580000000,0.0,0.0,0.0,-0.7002043,-2.3064744,4.4866524,0.75037396,0.57835835,0.31947774,-0.019357974
7529600000000,-6.198757,-0.7980728,-0.5508846,-0.8206975,-2.984535,5.277265,0.7630648,0.5870646,0.27030966,0.0044784024
7529620000000,-5.459382,-2.476007,-3.8925953,-1.1340714,-3.2543845,5.572618,0.77529454,0.5942871,0.21196347,0.028508056
7529640000000,-5.5453734,-4.441341,-4.8562055,-1.2457069,-3.4562755,5.978233,0.7866206,0.595967,0.15163991,0.055286713
7529660000000,-5.818314,-4.603161,-5.3759966,-0.8857546,-3.5141551,6.4568458,0.7929588,0.59751314,0.08504793,0.08343499
7529680000000,0.0,0.0,0.0,-1.1453724,-3.5220964,6.7173796,0.79287016,0.5981159,0.016801238,0.115464196
7529700000000,-5.4779286,-3.0192118,-8.920578,-2.3290765,-3.5520287,6.870096,0.7930942,0.58873415,-0.054307815,0.14643836
7529720000000,0.0,0.0,0.0,-3.4336736,-3.3421965,7.237226,0.7959052,0.56414366,-0.12731038,0.17907825
7529740000000,-5.0877438,-4.5686636,-11.414253,-4.2212315,-3.1085405,7.5472403,0.7970513,0.5275434,-0.20132491,0.21418524
7529760000000,-3.3468943,-3.7367737,-11.732495,-5.3136115,-2.7592783,7.6924734,0.7955337,0.47944817,-0.27523765,0.24799143
7529780000000,-2.489828,-2.8891997,-8.212653,-5.7344975,-1.8735237,8.346099,0.79281294,0.41558325,-0.3447019,0.28269938
7529800000000,-4.4384837,-3.0962281,-4.6803217,-5.563455,-1.3947581,8.763015,0.7823819,0.342613,-0.4066436,0.32424688
7529820000000,-6.8434153,-4.0103846,-4.1131516,-5.761223,-1.1585059,8.764236,0.76326674,0.2654591,-0.46222776,0.36510387
7529840000000,-7.8279653,-5.2251506,-4.959758,-6.229451,-1.1191051,8.720101,0.7376288,0.1819894,-0.5133387,0.39908266
7529860000000,-7.9934416,-5.5789766,-4.734933,0.0,0.0,0.0,0.70144945,0.090604804,-0.5617996,0.42911628
7529880000000,-7.9373083,-6.7790446,-3.1379433,0.0,0.0,0.0,0.6590282,0.0036820415,-0.5979629,0.4561894
7529900000000,0.0,0.0,0.0,0.0,0.0,0.0,0.61030227,-0.07071707,-0.6215036,0.48606956
7529920000000,0.0,0.0,0.0,-3.0761647,-0.46685377,8.23034,0.5613718,-0.13869731,-0.6329694,0.5147568
7529940000000,0.0,0.0,0.0,-2.8199067,0.10522154,8.252637,0.510744,-0.20405059,-0.63565063,0.54171246
7529960000000,-8.064963,-9.147078,-2.1778984,-2.6186266,0.43142357,7.9815655,0.4614315,-0.27108377,-0.6291754,0.56367797
7529980000000,-7.037506,-10.506944,1.9011192,-1.6748397,0.070554934,7.4415603,0.4109014,-0.32932582,-0.61894673,0.5827603
7530000000000,-4.6610994,-9.315042,0.6725375,0.9763154,-0.2582433,6.9313354,0.36520392,-0.373616,-0.59748584,0.6083157
7530020000000,-2.2274632,-8.884783,-7.7334127,4.0054436,1.5141822,6.1564527,0.33421385,-0.4013324,-0.55545104,0.64707613
7530040000000,-2.701772,-10.752307,-9.066194,4.8687487,3.526067,5.364924,0.3324184,-0.43390533,-0.48822927,0.68033546
7530060000000,-3.5273373,-10.766593,-4.7405853,4.4504585,3.6723692,4.46573,0.33711982,-0.46699345,-0.42094737,0.70076436
7530080000000,-1.5831456,-8.563333,-3.3401508,3.386637,3.3928983,3.6180022,0.34180766,-0.49332234,-0.36265463,0.71293914
7530100000000,1.0712643,-4.0520144,-4.8986835,2.5427265,4.258342,2.8652635,0.344112,-0.5201027,-0.3146144,0.71561027
7530120000000,0.6468034,-2.2433934,-5.1156125,1.8807014,5.1518846,1.5572482,0.354362,-0.5540342,-0.27078727,0.7029566
7530140000000,-2.276093,-1.986938,-3.8790188,1.3684908,4.7213774,0.9766208,0.36904186,-0.58698153,-0.23591726,0.6808847
7530160000000,-1.7324147,-1.2153282,-3.1417913,0.0,0.0,0.0,0.3795206,-0.61298764,-0.20712031,0.66129535
7530180000000,0.36519098,-0.47088337,-1.1665257,0.8498663,4.074166,1.1178834,0.38410234,-0.6467174,-0.18933657,0.63116854
7530200000000,0.0,0.0,0.0,1.3049608,4.2623124,0.764956,0.39200938,-0.6704864,-0.16025706,0.6091752
7530220000000,-0.26671028,1.2903118,0.8501679,1.5251778,3.8933496,0.39752057,0.40524206,-0.68970406,-0.13083251,0.5856366
7530240000000,-1.2995157,3.5163307,1.0203671,0.0,0.0,0.0,0.417211,-0.7051589,-0.105818234,0.56346124
7530260000000,-3.2424936,4.4882483,2.5480986,0.0,0.0,0.0,0.42096236,-0.71944857,-0.09035253,0.5449964
7530280000000,-3.899672,4.498315,4.5177937,-0.89476484,1.7989981,-0.03756821,0.419178,-0.7328597,-0.08242592,0.52953994
7530300000000,-4.171541,4.041671,6.4384193,-2.1661282,1.0940597,-0.44608435,1.0,0.0,0.0,0.0
7530320000000,-5.3493943,4.4312496,6.830465,-3.8545597,0.31703907,-0.39385536,0.3897497,-0.7607637,-0.10452778,0.5083381
7530340000000,-5.52908,2.352139,2.5465665,-4.5685086,0.07452556,-0.21273382,0.35589957,-0.77765876,-0.13001174,0.50167644
7530360000000,-5.2678776,-2.9451485,-1.3345273,-3.9706242,-0.81245077,0.18112154,0.32032168,-0.7916359,-0.15392245,0.49700576
7530380000000,-2.374249,-5.4465847,-1.6407995,-1.838857,-1.1511755,0.56505036,0.29170296,-0.79540324,-0.16985267,0.50338185
7530400000000,1.2058101,-5.2213664,-0.7328541,0.61010164,-1.2457069,0.86406887,0.28196073,-0.7918693,-0.17044634,0.51418805
7530420000000,3.589552,-2.3126879,-0.9789803,3.1415272,-0.97234476,1.2796099,0.29871207,-0.7834571,-0.16630727,0.51894885
7530440000000,5.1822414,-0.01970768,-2.0947328,4.554611,-0.5534439,1.7466165,0.32247445,-0.768848,-0.1345739,0.5355118
7530460000000,5.930571,4.2932096,-1.9656411,4.5616364,-0.68203104,2.6152668,0.34510422,-0.7524443,-0.09549768,0.55282086
7530480000000,6.61747,7.660711,1.3616185,2.6403122,-0.8938486,2.431549,0.35820663,-0.73575294,-0.05515348,0.57211334
7530500000000,4.6390653,6.802594,8.024704,0.2133447,-0.97509366,1.5754215,0.3523565,-0.72687536,-0.038960136,0.5882
7530520000000,0.19265556,-4.1392198,8.885256,-2.3483188,-1.5297593,0.57711494,1.0,0.0,0.0,0.0
7530540000000,0.0,0.0,0.0,0.0,0.0,0.0,0.309979,-0.7239637,-0.06846588,0.6124558
7530560000000,0.0,0.0,0.0,0.0,0.0,0.0,0.29207557,-0.721408,-0.08618483,0.6219602
7530620000000,0.0,0.0,0.0,1.3970488,-0.4195117,-0.11026118,1.0,0.0,0.0,0.0
7530700000000,0.0,0.0,0.0,-0.12767084,-2.6717718,-1.0534371,1.0,0.0,0.0,0.0
7530760000000,-0.7103119,1.3195705,-4.5277815,1.9828686,-3.8574612,-1.5792394,1.0,0.0,0.0,0.0
7530800000000,0.46212482,1.0521483,-9.335043,0.0,0.0,0.0,0.3951991,-0.49308565,-0.16760762,0.7566981
7530840000000,0.0,0.0,0.0,0.0,0.0,0.0,0.42773136,-0.44238633,-0.18668172,0.7658266
7530920000000,0.0,0.0,0.0,-3.606243,1.5520558,-1.9338466,1.0,0.0,0.0,0.0
7531100000000,0.9485917,3.6960416,0.47372198,0.0,0.0,0.0,1.0,0.0,0.0,0.0
7531120000000,0.0,0.0,0.0,-0.905455,-1.4732542,0.4558582,0.498243,-0.38337293,-0.1287444,0.76694477
7531200000000,0.0,0.0,0.0,0.0,0.0,0.0,0.51507676,-0.35109696,-0.110444844,0.77409875
7531260000000,0.0,0.0,0.0,-0.07727446,-0.6053675,0.24984388,1.0,0.0,0.0,0.0
7531320000000,0.0,0.0,0.0,-0.3998113,-0.94974273,1.3205379,1.0,0.0,0.0,0.0
7531340000000,0.0,0.0,0.0,-0.70249504,-1.0505356,1.3765849,1.0,0.0,0.0,0.0
7531360000000,0.0,0.0,0.0,-1.5903877,-1.3930782,1.1728612,1.0,0.0,0.0,0.0
7531400000000,-2.9432495,-5.5821457,3.3740387,0.0,0.0,0.0,1.0,0.0,0.0,0.0
7531420000000,0.0,0.0,0.0,-0.46105054,-1.4662293,0.398895,1.0,0.0,0.0,0.0
7531440000000,0.0,0.0,0.0,-0.12675454,-1.4234687,0.24648413,0.38002044,-0.28525314,-0.21157864,0.85407823
7531480000000,0.0,0.0,0.0,0.0,0.0,0.0,0.36321768,-0.2580496,-0.2210641,0.8675333
