timestamp,accel_x,accel_y,accel_z,gyro_x,gyro_y,gyro_z,rot_w,rot_x,rot_y,rot_z
7550780000000,0.7867961,-5.314231,4.799614,0.38224894,-0.68737614,-1.5699236,0.51128834,-0.0522938,-0.30154717,0.8030685
7550800000000,0.0,0.0,0.0,-1.5442673,-1.2457069,-1.9546161,1.0,0.0,0.0,0.0
7550820000000,0.0,0.0,0.0,-3.9133556,-1.7053831,-2.5373814,0.53398716,-0.03652377,-0.34231567,0.77223295
7550840000000,2.0380063,-3.616253,1.5880246,-5.1618114,-1.653765,-3.186426,0.54774225,-0.039029602,-0.38994545,0.7391872
7550860000000,1.7390537,-2.7373166,-0.7970948,-5.4064627,-1.1636983,-3.5214853,0.5638687,-0.044511337,-0.43893215,0.6981471
7550880000000,1.5927696,-1.7541819,-2.1798346,-5.5503216,-0.43936482,-3.8351648,0.5824704,-0.053394012,-0.48214087,0.65224034
7550900000000,-0.843421,1.2982659,-1.1867042,-4.924948,0.870483,-3.7684276,0.62077725,-0.07766803,-0.5564466,0.54678196
7550920000000,-1.6921439,1.9804025,-0.90083194,-4.3305764,1.2860241,-3.5023959,0.6389558,-0.08802181,-0.576473,0.5016639
7550940000000,-2.3971267,2.6453094,-0.29813147,-3.956116,1.5325081,-3.175583,0.65960515,-0.101972096,-0.58956885,0.45489722
7550960000000,-3.1397505,3.045419,0.59399056,-3.677256,1.561677,-2.7162123,0.674202,-0.1114845,-0.59927577,0.41700292
7550980000000,-3.6562915,2.918065,1.1113672,-3.3889277,1.4366024,-2.2576053,0.68893933,-0.12673599,-0.6056952,0.37740412
7551000000000,0.0,0.0,0.0,-2.9536862,1.3005321,-1.8245018,0.6972568,-0.13618071,-0.6113647,0.3485987
7551020000000,-4.2830305,1.7959919,1.970938,-2.3887885,1.0558805,-1.4486669,0.706222,-0.14898379,-0.6139015,0.319655
7551040000000,-3.77206,1.4815989,1.69517,0.0,0.0,0.0,1.0,0.0,0.0,0.0
7551060000000,-2.7587047,1.3884578,1.4093405,-1.5819882,0.6072,-0.84314674,0.7140451,-0.16115965,-0.6187084,0.28524923
7551080000000,-2.0891404,0.71486473,1.0214149,-1.4129313,0.5332854,-0.65026605,0.7148934,-0.16372739,-0.6212567,0.27597266
7551100000000,-1.7578936,0.5787158,1.5215366,0.0,0.0,0.0,0.7171963,-0.17163187,-0.622203,0.26274598
7551120000000,-1.2027822,0.29315567,1.532462,-1.4277447,0.20173825,-0.33460143,0.71693283,-0.17681286,-0.62441754,0.25465116
7551140000000,-0.06229353,-0.19992161,1.2014889,0.0,0.0,0.0,0.7159633,-0.18629412,-0.62735856,0.24313065
7551160000000,0.5989561,-1.1542821,1.5386928,-1.4243851,0.12889257,-0.30390546,0.7131487,-0.1933374,-0.63180065,0.2342382
7551180000000,0.21812487,-1.5407457,1.6230525,-0.9027061,0.16310102,-0.33292156,0.71257544,-0.2000046,-0.6339731,0.2243047
7551200000000,-0.4181695,-0.7641382,1.1939161,-0.50823987,0.116675265,-0.32574388,1.0,0.0,0.0,0.0
7551220000000,0.0,0.0,0.0,-0.593761,0.06536258,-0.26145032,0.7138526,-0.20086694,-0.63406503,0.21915413
7551240000000,-0.5719118,0.6253514,0.42666125,-0.9445504,0.03573562,-0.1777618,1.0,0.0,0.0,0.0
7551260000000,-0.8988638,0.35541916,0.4035123,-1.0569496,0.04810564,-0.08368854,0.710713,-0.21015853,-0.63870835,0.20681417
7551280000000,-1.4205699,0.24172974,0.4824528,-0.91965765,-0.011759156,0.025961773,0.7079859,-0.21465191,-0.64143604,0.20307723
7551300000000,-1.561142,0.03878832,0.85124475,-0.66614854,-0.06352998,0.122020334,0.7058237,-0.22081757,-0.643134,0.19857301
7551320000000,0.0,0.0,0.0,-0.18707748,-0.15851954,0.21227567,0.7030688,-0.22207798,-0.6451246,0.2004742
7551340000000,0.0,0.0,0.0,0.0,0.0,0.0,0.70369536,-0.22372937,-0.6418075,0.20698136
7551360000000,-1.6553206,-0.84712934,1.6105564,0.9662361,-0.4746423,0.29535335,0.7032254,-0.21754202,-0.6398247,0.22084863
7551380000000,-1.7695827,-0.19768286,1.0789993,1.2663237,-0.65240407,0.3764457,0.70141745,-0.210002,-0.64035183,0.2320825
7551400000000,-1.4035535,0.082704544,0.30932254,1.1992812,-0.8651379,0.4831944,0.6978251,-0.2009575,-0.6419846,0.24599199
7551420000000,-0.012210369,-0.5547104,-0.071707845,1.0615311,-0.9595166,0.5216789,0.6925314,-0.19442292,-0.644767,0.258603
7551440000000,1.8880472,-1.9021716,0.356476,1.2269229,-0.7493789,0.38805214,0.68697095,-0.18648708,-0.647624,0.2718026
7551460000000,0.0,0.0,0.0,1.6256652,-0.60918534,0.15989397,1.0,0.0,0.0,0.0
7551480000000,3.3127122,-1.9430251,1.6821914,1.6349808,-0.5671884,-0.14080444,0.68381983,-0.16276008,-0.64636546,0.2968354
7551500000000,0.0,0.0,0.0,1.4046847,-0.37048978,-0.49953505,0.68410486,-0.14869036,-0.645572,0.30516985
7551520000000,3.4888282,-3.1448965,0.86461663,1.4637859,-0.17073683,-0.9104946,0.6855418,-0.13185985,-0.6446843,0.31149268
7551540000000,1.9316721,-4.506038,2.5230365,0.0,0.0,0.0,1.0,0.0,0.0,0.0
7551560000000,0.3415556,-3.8508177,2.1431303,0.0,0.0,0.0,0.6947714,-0.07925858,-0.63394207,0.33034575
7551580000000,0.23440266,-1.2953095,-0.026166439,3.080288,-0.23716843,-1.3405437,0.6996132,-0.046132147,-0.62536013,0.3425462
7551600000000,0.2979555,0.38612938,-0.9728631,2.0923662,0.01786781,-1.2692252,0.6918402,-0.0052842554,-0.63760716,0.33880147
7551620000000,0.08772373,1.2955575,-1.2078482,1.1133019,0.22220223,-1.0334313,0.6964356,0.012572894,-0.6324712,0.33882096
7551640000000,0.04968357,0.94055295,-1.1831381,0.0,0.0,0.0,0.6985218,0.027413096,-0.62890655,0.34028283
7551660000000,0.17701626,0.27545714,-0.68588436,0.9233228,0.61941737,-0.60139686,0.7029451,0.036684953,-0.62385386,0.33960098
7551680000000,0.30078316,0.74160933,-0.3284396,0.7828238,0.644921,-0.59391373,0.706685,0.051366344,-0.6171223,0.34222504
7551700000000,1.0848961,2.5929222,0.051845074,0.1572978,0.6084218,-0.5554292,0.71254975,0.057448737,-0.6104891,0.340992
7551720000000,0.0,0.0,0.0,-0.85918194,0.64675355,-0.50991976,0.71671045,0.05868098,-0.6068112,0.3386192
7551740000000,0.94918346,1.5061773,0.32508826,-1.5709927,0.6059783,-0.4915938,0.72319734,0.049983434,-0.6063958,0.32675883
7551760000000,0.9081459,0.9928,1.4444499,-1.8156443,0.48334712,-0.4175264,0.72745425,0.04062472,-0.6077583,0.31589532
7551780000000,1.3518419,2.5383866,1.7116659,-2.0163136,0.269697,-0.26267207,0.731247,0.028405882,-0.61077154,0.3023724
7551800000000,1.3592949,3.2298794,0.79738903,-2.7375927,0.23243423,-0.04917465,0.732803,0.013064005,-0.6160131,0.2887163
7551820000000,0.10277271,2.0148625,0.29403782,-3.399618,0.1421789,0.14660765,0.73608315,-0.0068079256,-0.62232345,0.26617455
7551840000000,-0.716589,1.7122983,-0.51846445,-3.440393,-0.064599,0.3996586,0.73336124,-0.031378284,-0.6315159,0.24976867
7551860000000,0.0,0.0,0.0,-3.2866077,0.0852157,0.72143185,0.7300144,-0.05926024,-0.6398757,0.23265085
7551880000000,-1.6824436,2.9399633,-3.5463805,-3.4804046,0.40851614,0.99387777,0.7256236,-0.08552863,-0.64559996,0.22216219
7551900000000,-3.8458138,2.2306964,-3.3399587,-3.5827246,0.6070473,1.32909,0.7229927,-0.12048286,-0.64811295,0.20667654
7551920000000,0.0,0.0,0.0,-3.1494684,0.56505036,1.4735597,0.71769184,-0.15197808,-0.6498545,0.19877206
7551940000000,0.0,0.0,0.0,-2.2918136,0.58352906,1.6079501,0.71369094,-0.18247356,-0.6486404,0.19134864
7551960000000,-5.7300177,-0.6500039,-1.4982426,-1.727985,0.55665094,1.6070337,0.7092094,-0.20326117,-0.6463073,0.19492015
7551980000000,-5.7432694,-1.5551605,-1.084965,-1.3411547,0.4485278,1.5682437,0.70611316,-0.22519195,-0.642299,0.19530676
7552000000000,-5.434387,-1.3778152,-0.6585265,-0.8565858,0.30940324,1.5864171,1.0,0.0,0.0,0.0
7552020000000,0.0,0.0,0.0,-0.46486846,0.22586742,1.6592628,0.6981518,-0.25461677,-0.63524526,0.21028034
7552040000000,-5.509781,-0.65272474,-0.18347281,-0.35231653,0.12522738,1.6253597,0.693383,-0.2643746,-0.632037,0.22328345
7552060000000,0.0,0.0,0.0,-0.34162638,-0.070554934,1.658041,0.6890746,-0.2769694,-0.6280605,0.23238808
7552080000000,0.0,0.0,0.0,-0.37675115,-0.38896844,1.7490599,0.68101674,-0.28603044,-0.62739277,0.24653834
7552100000000,-5.3129296,-0.86344767,1.4308276,-0.21838433,-0.6942484,1.7293595,0.6720124,-0.2981463,-0.6268546,0.2579952
7552120000000,0.0,0.0,0.0,0.49021935,-0.9289733,1.6598736,0.66110235,-0.30481198,-0.6263091,0.2788735
7552140000000,-4.5625916,-1.7211328,0.9925395,1.4576772,-1.0815369,1.623527,0.65224195,-0.311186,-0.6192539,0.30703166
7552160000000,0.0,0.0,0.0,0.0,0.0,0.0,0.638467,-0.3210507,-0.6003141,0.3590395
7552180000000,-3.285522,-1.9008265,0.7385452,3.0039299,-1.3946054,1.8235855,0.63268185,-0.3101631,-0.5924907,0.39047068
7552200000000,-2.1939611,-2.1423283,0.30164385,3.6349537,-1.5804611,1.8622227,0.6241026,-0.2903628,-0.5840733,0.43016714
7552220000000,-1.6560888,-1.1661253,-0.8743,4.1775546,-1.5135714,1.8666514,0.6156698,-0.272259,-0.5711526,0.46969193
7552240000000,-1.3709714,-0.5506563,-0.8304353,4.5769076,-1.3860532,2.0390682,1.0,0.0,0.0,0.0
7552260000000,-0.2618065,-0.6173239,-0.31233597,4.9913797,-1.5419766,2.131767,0.59617984,-0.22631213,-0.5328461,0.5562621
7552280000000,1.2230339,-1.2597752,-0.8037348,5.4217343,-1.433548,2.0864103,0.58376515,-0.19470976,-0.50849676,0.60227686
7552300000000,1.4925821,-1.6527758,-2.0520997,5.5889587,-0.9798279,2.0525072,0.5750291,-0.16482176,-0.47708312,0.64386886
7552320000000,0.61032295,-0.9031501,-1.8991909,4.9695415,-0.7263188,2.2056818,0.560369,-0.138964,-0.4542792,0.6784586
7552340000000,1.0773969,0.34845304,-0.8743825,3.6593883,-0.8536842,2.4080307,0.54688877,-0.11874183,-0.42664728,0.7104824
7552360000000,2.4003441,0.73177147,0.38218737,2.417652,-0.890947,2.3675609,0.5257059,-0.10496833,-0.4085068,0.7387403
7552380000000,2.1677625,-0.39325237,0.83961153,0.0,0.0,0.0,0.5070541,-0.09740228,-0.39602417,0.7593245
7552400000000,1.4159575,-2.3660107,0.940341,1.6233743,-0.9772317,2.1077905,1.0,0.0,0.0,0.0
7552420000000,2.1973677,-3.0095606,1.1061487,1.3857478,-0.9095783,1.9364429,0.47008193,-0.08308215,-0.37693298,0.7937517
7552440000000,2.9969978,-2.2843637,2.247332,1.3394748,-0.7304421,1.6927075,0.4536867,-0.07752266,-0.36901936,0.8074549
7552460000000,2.2751036,-1.5708456,2.7026548,0.0,0.0,0.0,0.43961912,-0.071037024,-0.35888717,0.82029796
7552480000000,1.6440845,-1.7013936,1.692574,0.0,0.0,0.0,0.4268301,-0.061682,-0.34440032,0.8339064
7552500000000,0.0,0.0,0.0,1.8377881,-0.5874997,1.161713,0.41538167,-0.05195574,-0.32902136,0.8464654
7552580000000,0.0,0.0,0.0,0.0,0.0,0.0,0.3791119,-0.02744526,-0.29053298,0.8781296
7553040000000,0.0,0.0,0.0,0.0,0.0,0.0,0.33901155,-0.03632555,-0.31606466,0.8853557
7553140000000,0.0,0.0,0.0,-0.13805555,-0.06841691,0.017104227,0.33705905,-0.037075453,-0.31907,0.88499206
7553180000000,0.0,0.0,0.0,0.0,0.0,0.0,0.33635053,-0.036212098,-0.32093993,0.88462126
7553200000000,0.0,0.0,0.0,0.008399397,-0.046120327,0.027183503,1.0,0.0,0.0,0.0
7553220000000,0.13055325,0.6622658,0.22543192,0.0,0.0,0.0,1.0,0.0,0.0,0.0
7553240000000,-0.052259684,0.7290664,0.3024149,-0.12507465,-0.07666359,0.014660766,0.33522072,-0.035527818,-0.3220175,0.88468623
7553280000000,0.0,0.0,0.0,0.0,0.0,0.0,0.33459967,-0.034303375,-0.32466838,0.8840005
7553320000000,0.0,0.0,0.0,0.0,0.0,0.0,0.3340481,-0.03261592,-0.32427981,0.88441545
7553360000000,0.1827358,0.18861103,0.23854876,0.0,0.0,0.0,1.0,0.0,0.0,0.0
7553420000000,0.0,0.0,0.0,-0.03726278,-0.0025961774,0.02733622,0.3325579,-0.030670112,-0.32367292,0.8852686
7553460000000,0.0,0.0,0.0,0.0,0.0,0.0,0.33188045,-0.031616785,-0.32549024,0.8848231
7553580000000,0.0,0.0,0.0,0.0,0.0,0.0,0.33048838,-0.034209948,-0.32143664,0.88672745
7553620000000,0.1886853,0.09313631,0.28264093,0.0,0.0,0.0,1.0,0.0,0.0,0.0
7553680000000,0.15192223,0.7621536,0.1493125,0.0,0.0,0.0,1.0,0.0,0.0,0.0
7553740000000,0.0,0.0,0.0,0.0,0.0,0.0,0.33111915,-0.040579576,-0.31005785,0.89026827
7553780000000,0.0,0.0,0.0,-0.00076358154,-0.05375614,-0.009468411,0.33120644,-0.03981837,-0.31039053,0.89015424
