timestamp,accel_x,accel_y,accel_z,gyro_x,gyro_y,gyro_z,rot_w,rot_x,rot_y,rot_z
6949840000000,0.0,0.0,0.0,0.0,0.0,0.0,1.0,0.0,0.0,0.0
6950380000000,0.0,0.0,0.0,0.0,0.0,0.0,0.14782885,-0.77130705,-0.091978855,0.61218625
6950400000000,0.6286545,-4.773508,-0.24823713,0.4972443,0.6247624,0.7528914,1.0,0.0,0.0,0.0
6950420000000,0.324955,-3.7354586,-0.071647406,0.805884,0.55481833,0.44409904,0.14709853,-0.7780839,-0.073442936,0.60626215
6950440000000,0.45851898,-2.6896658,0.407516,0.0,0.0,0.0,0.15372382,-0.7793074,-0.06428698,0.60408294
6950460000000,0.7112541,-2.6054776,0.81995296,0.0,0.0,0.0,1.0,0.0,0.0,0.0
6950480000000,-0.23852348,-2.135115,1.9808209,2.3698518,-0.29978213,0.5296202,1.0,0.0,0.0,0.0
6950500000000,0.0,0.0,0.0,3.4849863,-0.890947,0.83169305,0.1963361,-0.75907487,-0.021363242,0.62032336
6950520000000,0.8834982,2.7715204,0.34730393,3.9364157,-1.2072225,0.9034697,1.0,0.0,0.0,0.0
6950540000000,-0.19077301,3.2241428,-0.6514469,2.8480065,-0.63713247,1.8064812,0.22869216,-0.7297294,0.044256654,0.6428344
6950560000000,-2.9546337,0.9819635,1.3727669,1.459357,-0.80878556,2.8501446,0.2238325,-0.72166675,0.07588835,0.6506435
6950580000000,-3.5754366,-2.144484,2.836614,0.41386122,-2.0754147,2.2893703,0.21103564,-0.7082549,0.09573478,0.66683877
6950600000000,0.0,0.0,0.0,-0.5403103,-2.3536637,0.66737026,0.20212086,-0.6898183,0.09923137,0.68807787
6950620000000,0.0,0.0,0.0,0.0,0.0,0.0,0.19392988,-0.67905676,0.087382525,0.7025934
6950640000000,-0.4498129,-3.7834096,0.943802,-1.5891659,-0.98837996,-0.57971114,1.0,0.0,0.0,0.0
6950660000000,-0.6789608,-3.772626,2.6935787,-1.9781344,-0.6976081,-1.4801265,0.17884383,-0.6731668,0.05185448,0.7156623
6950680000000,0.84688854,-3.7847557,4.998628,-1.9598085,-0.9973902,-3.2435417,0.18091004,-0.67249006,0.020342994,0.71736664
6950700000000,-2.2262697,-3.5465603,4.3343186,-0.96761054,-1.0520626,-3.1917708,1.0,0.0,0.0,0.0
6950720000000,-5.3022757,-4.4422026,2.4128232,0.11575896,-1.5803084,-1.9790506,0.21078491,-0.6588081,-0.04257144,0.7209225
6950740000000,-4.3698864,-3.2564876,1.8595407,1.0497719,-2.1061106,-1.7673858,0.22537097,-0.6419049,-0.053630743,0.7309513
6950760000000,0.0,0.0,0.0,1.2119566,-1.97508,-1.7545577,0.24394068,-0.6220281,-0.06120385,0.7415039
6950780000000,-7.541482,-6.204552,1.46368,1.9512563,-2.1474967,-1.6366607,0.26245138,-0.60296285,-0.06701233,0.75037634
6950800000000,-7.3655424,-5.5235295,1.4313769,3.3851097,-2.9709432,-1.8872682,0.2894951,-0.57539517,-0.063813485,0.7622603
6950820000000,-5.0072184,-4.661388,1.0803185,4.443434,-3.6583192,-2.08977,0.32220575,-0.5346606,-0.05621364,0.7792058
6950840000000,0.2053628,-3.4962058,1.2322292,4.5636215,-3.1754303,-2.5247061,1.0,0.0,0.0,0.0
6950860000000,1.6227403,-1.3190012,1.6228008,3.981467,-2.2994494,-2.8209758,0.39986163,-0.44938052,-0.034024734,0.79812914
6950880000000,-1.1181393,0.54180217,0.010456562,0.0,0.0,0.0,0.43762457,-0.41797864,-0.028520934,0.7955911
6950900000000,0.0,0.0,0.0,0.14370605,-2.4465153,-2.881146,0.46158314,-0.3932061,-0.041272104,0.79412
6950920000000,-0.12621307,2.2816076,-2.1331935,-1.8487836,-2.556929,-2.7936394,1.0,0.0,0.0,0.0
6950940000000,1.0938458,1.7765582,-2.621274,-2.4578164,-2.1853704,-3.08884,0.48499808,-0.36631927,-0.11733899,0.7853781
6950960000000,0.0,0.0,0.0,-2.3687828,-1.6534595,-3.359606,0.4988728,-0.3592857,-0.15777534,0.7727527
6950980000000,0.0,0.0,0.0,-2.3718371,-1.3411547,-3.5069773,0.5116113,-0.35341293,-0.1964108,0.7581398
6951000000000,2.1175005,4.2641144,-3.6038957,-2.455831,-1.1468995,-3.524998,0.5270393,-0.34899712,-0.23317067,0.73896015
6951020000000,2.2682555,3.1418562,-4.1056514,-2.493552,-0.8865182,-3.468951,0.53914034,-0.34550378,-0.27004442,0.7190487
6951040000000,1.7413568,2.0117707,-3.6674724,0.0,0.0,0.0,0.55284536,-0.34342834,-0.30226725,0.6964579
6951060000000,1.3407593,2.0976434,-3.2891593,-0.8907942,-0.4297437,-2.885422,0.56530124,-0.33740258,-0.3256538,0.6786337
6951080000000,1.1187695,2.9290705,-3.449351,-0.013439035,-0.47861293,-2.5906794,1.0,0.0,0.0,0.0
6951100000000,1.0934597,3.7189436,-3.417959,0.6105598,-0.68966687,-2.1943808,0.59403414,-0.312258,-0.34889847,0.6541317
6951120000000,1.0087159,3.5778522,-3.1093345,1.1421653,-0.61834836,-1.6965255,1.0,0.0,0.0,0.0
6951140000000,0.7397819,2.693029,-2.8164253,1.8333594,-0.5190827,-1.3330606,0.6164438,-0.27647224,-0.3518693,0.64787984
6951160000000,0.15089536,1.0869656,-2.6206384,2.6571112,-0.65377855,-1.0268645,0.62815404,-0.25468692,-0.3437036,0.64994234
6951180000000,-0.30025005,0.29021502,-2.3174586,3.7136025,-0.83108217,-0.606131,0.6365982,-0.2258804,-0.3301914,0.6593136
6951200000000,-0.5580509,-0.12875319,-1.9699302,4.59447,-0.8414669,-0.2669481,0.64527696,-0.19119762,-0.3083689,0.67228705
6951220000000,-0.26300585,1.0614438,-1.494236,4.868596,-0.4841107,0.068264194,0.65115863,-0.15411682,-0.27982712,0.6884311
6951240000000,-0.28536546,1.2434113,-0.5863323,3.8898373,-0.30008754,0.007788532,0.65584517,-0.12223043,-0.24954574,0.7018931
6951260000000,-1.3732872,0.5227041,1.0089464,2.3715315,-0.59589905,-0.0936151,0.6587642,-0.099654675,-0.23013654,0.7093207
6951280000000,-1.6208152,-1.0281453,1.4356956,1.5337299,-0.6780604,0.056046885,0.65915847,-0.083203465,-0.22294393,0.71336055
6951300000000,-1.2904768,-1.6035519,0.640543,1.5567901,-0.5175556,0.26710084,0.65748465,-0.07001267,-0.21688047,0.71817476
6951320000000,-0.91574216,-0.87390566,-0.24536133,1.382388,-0.36270124,0.37766743,0.6524871,-0.070267744,-0.21111836,0.72439766
6951340000000,-0.9687257,0.10609388,-0.27808285,0.5751296,-0.3678936,0.3129157,0.64976877,-0.061818887,-0.20524839,0.7292819
6951360000000,-0.8674277,0.37696433,0.5195217,-0.3126103,-0.48243082,0.3203988,0.6468856,-0.059221823,-0.20744552,0.7314358
6951380000000,-0.41375947,-0.2200265,1.6962442,-0.5899431,-0.5345071,0.45051312,0.64258176,-0.0602441,-0.21520296,0.73290324
6951400000000,-0.096950054,-0.9949622,2.092968,-0.4098906,-0.5242751,0.51343226,0.6374134,-0.060910374,-0.22248718,0.73518276
6951420000000,0.14232147,-0.48704195,1.5958242,-0.08017606,-0.48701233,0.6258314,0.6320031,-0.060022485,-0.22699681,0.73854035
6951440000000,0.288576,-0.11998129,0.5894146,0.087659165,-0.50335294,0.65102965,0.62596446,-0.057529304,-0.22920012,0.7431866
6951460000000,0.2929288,-0.07977533,0.21478081,0.1563815,-0.5384777,0.61529404,0.6201706,-0.054404825,-0.23108622,0.7476816
6951480000000,0.30907488,-0.45949745,0.87485313,0.1572978,-0.5187773,0.54473907,0.61456734,-0.050421104,-0.23267101,0.7520831
6951500000000,0.5347903,-0.30940437,0.8219938,-0.08368854,-0.4729624,0.4822781,0.6097822,-0.047551632,-0.23496455,0.7554444
6951520000000,1.0209367,0.10879564,0.08677864,-0.4063781,-0.46028697,0.5002986,0.60491174,-0.04670112,-0.23950946,0.7579815
6951540000000,1.4672458,0.39855576,-0.73142624,-0.6377433,-0.3996586,0.4896085,0.60006225,-0.046066828,-0.24781041,0.75920564
6951560000000,1.883023,0.6236372,-1.3379703,-0.7619017,-0.24022275,0.48151454,0.59525603,-0.048893973,-0.25519782,0.7603641
6951580000000,2.031666,0.6116543,-1.2384691,-0.8900307,-0.1498147,0.3839288,0.59110606,-0.053182572,-0.2626586,0.76077324
6951600000000,1.5791938,-0.6132555,-0.0048189163,-0.8697194,-0.16371189,0.21517728,0.5879594,-0.05812523,-0.2706881,0.7600349
6951620000000,1.6628251,-1.5577621,1.0155544,-0.5635232,-0.023823744,0.12980886,0.5861217,-0.062087696,-0.2769273,0.7588925
6951640000000,1.699225,-1.4968104,1.2172737,-0.23930646,-0.0071776668,0.051923547,0.5852549,-0.06462229,-0.27945393,0.7584235
6951660000000,1.4754667,-1.2908268,1.1873035,-0.20433442,-0.052534413,-0.08093964,0.58519435,-0.06522058,-0.2808019,0.75792104
6951680000000,1.2027972,-0.6462946,1.3037319,-0.46715918,-0.15790866,-0.23350324,0.585958,-0.06566705,-0.2836055,0.7562466
6951700000000,1.2260218,-0.18484211,1.241991,-1.0685561,-0.26267207,-0.39675698,0.5873367,-0.06738642,-0.29075867,0.7522992
6951720000000,1.4126725,0.48495197,0.7282915,-1.6650659,-0.345597,-0.46043968,0.58884484,-0.072038785,-0.30364192,0.74556947
6951740000000,1.4778652,0.6959815,0.18123293,-1.97508,-0.40515637,-0.48670688,0.59085894,-0.074951485,-0.32124352,0.7362544
6951760000000,1.1017442,0.5769415,-0.15091276,-1.9611828,-0.3924809,-0.5122105,0.5943295,-0.07118199,-0.34499156,0.72297066
6951780000000,0.8470843,0.08570862,-0.37490606,-1.5685493,-0.40546182,-0.5484043,0.59537244,-0.07669674,-0.36170784,0.713314
6951800000000,0.7886815,-0.36756563,-0.77857876,-0.95554596,-0.24174993,-0.528093,0.59542114,-0.07835685,-0.38316536,0.70179635
6951820000000,0.6920264,0.22045135,-1.404881,-0.41874814,-0.04550946,-0.44974953,0.5978602,-0.07916358,-0.38860926,0.69661987
6951840000000,0.3991022,1.0526338,-1.9971867,-0.29443705,0.055741455,-0.39690968,0.6006806,-0.07932452,-0.39053038,0.693092
6951860000000,-0.07496929,1.8209262,-1.8169403,-0.2591596,0.046578474,-0.31642818,0.60321796,-0.08012155,-0.39246088,0.6896979
6951880000000,-0.099113464,2.0205407,-1.7109785,-0.042760566,0.12843442,-0.19165897,0.60507405,-0.0805506,-0.3934302,0.68746614
6951900000000,-0.10846329,1.9710326,-1.8353024,0.21013765,0.18402316,-0.063224554,0.6067115,-0.08074506,-0.39176393,0.6869515
6951920000000,-0.49056816,1.5509992,-1.7060003,0.5862779,0.106137834,0.09560041,0.6074787,-0.07959131,-0.3881608,0.688452
6951940000000,-0.68664217,0.28823233,-1.0604234,1.1154399,0.09101892,0.20891592,0.6072188,-0.07553775,-0.38166168,0.6927581
6951960000000,-0.44081378,-0.57011986,-0.6270032,1.4961617,0.21563543,0.28420505,0.6068243,-0.06928857,-0.3711572,0.6994325
6951980000000,-0.36689758,-0.348711,-0.50189257,1.5451837,0.21655174,0.31887165,0.60659766,-0.062653415,-0.35821444,0.70696276
6952000000000,-0.60516,-0.6944299,-0.17721605,1.2982414,0.10369437,0.3042109,0.6055556,-0.056527622,-0.34687662,0.71399134
6952020000000,-0.43779993,-1.365314,0.16028261,0.96776325,0.14080444,0.27030787,0.6044535,-0.051401153,-0.33822975,0.7194405
6952040000000,-0.15405345,-0.8140793,0.44429016,0.6411031,0.13408493,0.28252518,0.60341316,-0.048763983,-0.33145684,0.7236374
6952060000000,0.0,0.0,0.0,0.0,0.0,0.0,0.60195833,-0.047663078,-0.32741994,0.72675353
6952080000000,0.0,0.0,0.0,0.4334089,0.058948494,0.24480425,1.0,0.0,0.0,0.0
6952100000000,0.018323421,-0.32505083,0.16821003,0.63316184,0.10552697,0.24251351,0.5992215,-0.044905387,-0.32003853,0.7324565
6952160000000,0.2252326,0.9490566,-0.093099594,0.2845105,0.22296582,0.33169982,1.0,0.0,0.0,0.0
6952180000000,0.0,0.0,0.0,0.00580322,0.23273966,0.3313944,1.0,0.0,0.0,0.0
6952220000000,0.0,0.0,0.0,-0.13820826,0.22953261,0.258396,1.0,0.0,0.0,0.0
6952260000000,0.0,0.0,0.0,0.02275473,0.26710084,0.1328632,1.0,0.0,0.0,0.0
6952300000000,1.017122,-0.14517212,-0.2810006,0.0,0.0,0.0,1.0,0.0,0.0,0.0
6952340000000,0.0,0.0,0.0,0.0,0.0,0.0,0.5906799,-0.062353395,-0.2919646,0.749644
6952360000000,0.0,0.0,0.0,0.29443705,0.22449298,0.04153884,1.0,0.0,0.0,0.0
6952400000000,0.0,0.0,0.0,0.64675355,0.20891592,0.054519724,1.0,0.0,0.0,0.0
6952420000000,0.0,0.0,0.0,0.0,0.0,0.0,0.59265965,-0.058134027,-0.2729216,0.75557196
6952480000000,0.09739137,0.25114584,0.051888466,0.0,0.0,0.0,1.0,0.0,0.0,0.0
6952500000000,0.0,0.0,0.0,0.014202617,-0.106595986,0.15882497,1.0,0.0,0.0,0.0
6952540000000,0.14727783,-0.3369317,-0.17954826,0.0,0.0,0.0,1.0,0.0,0.0,0.0
6952620000000,0.23665261,0.2487526,-0.055003166,0.0,0.0,0.0,1.0,0.0,0.0,0.0
