timestamp,accel_x,accel_y,accel_z,gyro_x,gyro_y,gyro_z,rot_w,rot_x,rot_y,rot_z
3507100000000,0.0,0.0,0.0,0.0,0.0,0.0,1.0,0.0,0.0,0.0
3507620000000,0.0,0.0,0.0,0.0,0.0,0.0,1.0,0.0,0.0,0.0
3508100000000,0.0,0.0,0.0,0.0,0.0,0.0,1.0,0.0,0.0,0.0
3508480000000,-1.8131714,0.47115636,-0.6897647,0.0,0.0,0.0,0.3964463,0.37147295,0.58547604,-0.6017109
3508500000000,-2.1284504,-0.22570062,-0.41478935,0.27687466,0.7996226,2.7861564,0.40765288,0.39335245,0.57649374,-0.5888531
3508520000000,0.0,0.0,0.0,0.0,0.0,0.0,0.4177291,0.41523865,0.566819,-0.576017
3508540000000,-1.9875126,-1.7403905,0.060078174,0.6035349,0.906524,2.6158776,0.4259601,0.43705758,0.5563429,-0.56393373
3508560000000,-1.9502249,-2.4817429,0.38427103,0.93615097,0.99280876,2.457511,0.4313216,0.45953023,0.54490006,-0.553062
3508580000000,-1.9105177,-3.0404851,0.61823106,1.3025174,1.0500773,2.2530236,0.43320936,0.4827233,0.53203017,-0.5442901
3508600000000,-1.621522,-3.2452536,0.8999106,1.5323554,1.0786353,1.9929478,0.4302167,0.50734776,0.51698095,-0.53874165
3508620000000,-1.1443243,-3.247869,1.1595902,1.5685493,1.0940597,1.707063,0.42618015,0.5292998,0.503631,-0.53344923
3508640000000,-0.7500019,-3.334957,1.6891596,1.449125,1.1081096,1.4091134,0.41915917,0.5505355,0.49049896,-0.5297426
3508660000000,-0.71564007,-3.5189662,2.1715677,1.2315043,1.0525209,1.1166617,0.4127765,0.56785244,0.48110154,-0.52507186
3508680000000,-0.7469053,-3.4965162,2.7256863,0.93416566,0.90041536,0.8698721,0.40559596,0.583074,0.47254476,-0.5217454
3508700000000,-0.32460594,-3.5507882,2.9454112,0.63407815,0.7272351,0.6516405,0.40112787,0.593663,0.46752608,-0.51776445
3508720000000,0.05671501,-3.8726315,3.5509152,0.40332377,0.5340489,0.45173484,0.39753932,0.6010256,0.4640552,-0.51515394
3508740000000,0.1408863,-3.8469255,3.9496183,0.19333886,0.29932398,0.27412578,0.39545926,0.60503405,0.46232864,-0.5136127
3508760000000,0.28247643,-3.3974748,3.6163516,-0.17211129,0.03268129,0.14737125,0.39448676,0.60206693,0.4625293,-0.5176507
3508780000000,0.65982914,-2.6700082,2.9658554,-0.7279987,-0.19639318,0.027183503,0.39522612,0.5853949,0.46664992,-0.53230345
3508800000000,0.8485279,-2.8264685,2.6596498,-1.1562152,-0.3717115,-0.08475755,0.39650044,0.57071966,0.47082222,-0.5435006
3508820000000,0.7710972,-3.4764113,2.6658716,-1.1910346,-0.5141958,-0.20830505,0.40231562,0.5553997,0.47887263,-0.548046
3508840000000,0.6636419,-3.6900668,2.6149993,-0.94791013,-0.61926466,-0.36758816,0.40611663,0.54728293,0.4814562,-0.55113566
3508860000000,0.4616623,-3.4924428,2.339835,-0.64980793,-0.68645984,-0.52946746,0.41066062,0.5374339,0.48581284,-0.55363214
3508880000000,0.11645794,-3.3177319,2.029047,-0.38835758,-0.7449502,-0.68768156,0.41044524,0.5308854,0.4857763,-0.56010425
3508900000000,-0.3497982,-3.2853522,1.8862009,-0.19181168,-0.8016079,-0.86086184,0.4111697,0.52160895,0.48815614,-0.56618655
3508920000000,-0.9588289,-2.9644961,1.5557555,-0.10842858,-0.86483246,-1.0635164,0.4084977,0.5132256,0.488558,-0.5753611
3508940000000,-1.5098629,-2.4805434,0.90794325,-0.20708331,-0.94959,-1.321607,0.40663722,0.50157976,0.49161825,-0.5842734
3508960000000,-1.8419209,-1.9281588,0.2512099,-0.45372015,-1.0132728,-1.6368134,0.40290445,0.48836273,0.49549603,-0.5946879
3508980000000,-2.1585217,-1.8238945,-0.06384325,-0.65576386,-1.0364856,-2.0431914,0.39986673,0.47056732,0.503758,-0.60407037
3509000000000,-2.6885672,-1.7686603,-0.37618017,-0.70203686,-1.0389291,-2.5291348,0.3940364,0.45003763,0.514269,-0.61459655
3509020000000,-3.077629,-0.9281707,-0.7356211,-0.7985536,-1.0823005,-3.0335567,0.38530427,0.42603365,0.527014,-0.6263324
3509040000000,-3.2896671,-0.16504192,-0.93498707,-1.0215194,-1.0810788,-3.4626896,0.37397414,0.39815333,0.5421133,-0.63853776
3509060000000,-3.5078754,0.18192387,-0.97056574,-1.1490375,-1.0273226,-3.7103956,0.36070237,0.367223,0.5594403,-0.6496674
3509080000000,-3.5093021,0.6267562,-0.9559798,-1.0705414,-0.95462966,-3.7621663,0.34565964,0.335313,0.57667685,-0.65994585
3509100000000,-3.2946577,1.6058345,-0.9761456,-0.89858276,-0.86406887,-3.6219728,0.32943615,0.3043484,0.5920526,-0.6695653
3509120000000,-2.9116511,2.6303217,-1.0252225,-0.66752297,-0.78694713,-3.3351715,0.31451392,0.27435243,0.605416,-0.6777044
3509140000000,-1.751967,3.045251,-0.7585641,-0.40439278,-0.7102836,-2.9481883,0.31969106,0.27917978,0.6099194,-0.6692194
3509160000000,-0.9921279,3.8847537,-0.9238792,-0.14584407,-0.6038403,-2.497828,0.30934477,0.25469828,0.61792624,-0.6764627
3509180000000,-0.3854375,4.4406137,-1.0446883,0.10751228,-0.47494772,-2.012343,0.29761052,0.23740028,0.6217645,-0.68445456
3509200000000,-0.011449814,4.740926,-1.1184585,0.34315357,-0.33093625,-1.5260941,0.2915305,0.2212082,0.6241021,-0.690343
3509220000000,0.05934143,4.9472437,-1.1925372,0.54901516,-0.19272798,-1.0311406,0.28349173,0.21318038,0.6228328,-0.69732773
3509240000000,0.0886879,5.136036,-1.2970018,0.68462723,-0.07238753,-0.54275376,0.28125003,0.2064354,0.6205735,-0.7022616
3509260000000,0.14681816,5.2619724,-1.2940378,0.7493789,0.047647487,-0.0664316,0.27796903,0.20690548,0.6159218,-0.70750535
3509280000000,0.13071966,5.1761436,-1.3620809,0.7460192,0.1872302,0.37018433,0.28049627,0.20821393,0.6114288,-0.71001667
3509300000000,-0.0751009,4.935247,-1.4447237,0.6936375,0.29794952,0.7695375,0.28173792,0.21586905,0.6057275,-0.71212256
3509320000000,-0.25217104,4.613532,-1.4980509,0.5868888,0.3840815,1.1426234,0.28694552,0.22483784,0.6004352,-0.7117498
3509340000000,-0.3445239,4.317625,-1.3765235,0.43860126,0.48472157,1.4941764,0.29275408,0.23751515,0.5949781,-0.709847
3509360000000,-0.46344614,4.021038,-1.2786773,0.2565634,0.59742624,1.809841,0.30137956,0.25178218,0.590332,-0.70518386
3509380000000,-0.75440264,3.7523594,-1.2297049,0.069485925,0.6818783,2.0864103,0.31105116,0.2685311,0.5861562,-0.6982544
3509400000000,-1.0139661,3.2900605,-1.2299118,-0.1001819,0.75426584,2.36863,0.3228063,0.2870218,0.5823459,-0.68868566
3509420000000,-1.0843277,2.519661,-1.140739,-0.3184135,0.8558222,2.6212227,0.3442354,0.32252964,0.5776653,-0.6661678
3509440000000,-1.6172934,2.116889,-1.1130618,-0.6030767,0.9300423,2.8142562,0.3588007,0.34306213,0.57477754,-0.6505393
3509460000000,-2.2499495,1.5358593,-1.0419052,-0.8927795,0.9560041,2.976441,0.37474748,0.36308658,0.57294965,-0.6320294
3509480000000,-2.7303982,0.7392535,-0.97880626,-1.057255,0.93767816,3.072805,0.39201972,0.38252577,0.57161725,-0.6109406
3509500000000,-2.8959894,-0.24588084,-0.5853625,-0.9625709,0.90316427,3.1164818,0.4095594,0.40148434,0.5695398,-0.5888089
3509520000000,-2.7623138,-1.4173498,0.217845,-0.51007247,0.853226,3.0914364,0.42567557,0.42100808,0.5649067,-0.5678319
3509540000000,-2.3441572,-2.532244,0.7421672,0.26160303,0.8492554,2.9917126,0.43852323,0.4421586,0.5560973,-0.55040807
3509560000000,-1.9156914,-3.090551,0.6743315,1.0742066,0.9512699,2.8254044,0.44459763,0.46759316,0.5417115,-0.53873765
3509580000000,-1.8536816,-3.4589267,0.46436822,1.7290541,1.0789407,2.618932,0.44639558,0.49412152,0.5253498,-0.5297006
3509600000000,-1.8643637,-3.9792156,0.95102656,2.1740694,1.1198688,2.3634377,0.44096345,0.5240396,0.5049637,-0.52530515
3509620000000,-1.449007,-4.3417106,1.6235305,2.4152086,1.128879,2.0465512,0.43420208,0.55096865,0.48587027,-0.5213754
3509640000000,-1.029069,-4.280826,2.058221,2.3881776,1.1389582,1.6760615,0.42205006,0.57823336,0.4651786,-0.52070045
3509660000000,-0.88630676,-3.8526766,2.4875789,1.9828686,1.0705414,1.2967142,0.41126454,0.5999636,0.44970298,-0.5183361
3509680000000,-0.7451277,-3.626002,3.0269427,1.290911,0.8854492,0.9472993,0.40022564,0.6183673,0.4361015,-0.51696897
3509700000000,-0.36975288,-3.8329554,3.559369,0.61010164,0.6774496,0.6243043,0.39524204,0.62881035,0.42999026,-0.5133125
3509720000000,-0.034832,-4.090792,3.9101496,0.11988231,0.4738787,0.33750305,0.39199996,0.63439626,0.42716056,-0.51128405
3509740000000,0.17014313,-4.141053,4.0575047,-0.21395555,0.25457808,0.102319926,0.39130178,0.63392466,0.42872825,-0.51109153
3509760000000,0.42590618,-3.9630237,3.9407487,-0.44929138,0.031154128,-0.0888809,0.38972843,0.6255545,0.43280268,-0.5191101
3509780000000,0.65486526,-3.7715127,3.671392,-0.61727935,-0.17195857,-0.2556471,0.38844702,0.6085921,0.44064686,-0.5334369
3509800000000,0.69514656,-3.5246634,3.3418422,-0.7266242,-0.36254853,-0.4118759,0.3871664,0.5927595,0.4471091,-0.5466551
3509820000000,0.53504944,-3.477075,3.0291924,-0.79549927,-0.5487097,-0.5572618,0.38974813,0.5813991,0.45350078,-0.55173236
3509840000000,0.36535263,-3.287592,2.6571922,-0.8399397,-0.7121162,-0.6937902,0.39221853,0.57089204,0.45851538,-0.556786
3509860000000,0.18822575,-3.0473177,2.1766057,-0.84772825,-0.8199339,-0.84421575,0.3959317,0.558706,0.46489254,-0.56121355
3509880000000,-0.19625854,-3.084695,1.8712201,-0.8049677,-0.9317222,-1.0456486,0.39708143,0.54788524,0.46891755,-0.5676834
3509900000000,-0.7516022,-3.2512822,1.4953434,-0.68752885,-1.0261009,-1.2777774,0.3991072,0.5336132,0.47565648,-0.5742138
3509920000000,-1.3145218,-3.1927233,1.0596242,-0.61621034,-1.0855075,-1.5725199,0.39779693,0.51933,0.48107755,-0.5836253
3509940000000,-1.9744205,-2.793728,0.4136326,-0.81061816,-1.1368202,-1.9857702,0.39604914,0.501535,0.4896192,-0.5931954
3509960000000,-2.5013256,-2.2264469,-0.09610094,-1.1583532,-1.1855367,-2.484847,0.3932216,0.47944427,0.5020666,-0.60285926
3509980000000,-2.8517742,-1.8133874,-0.2527349,-1.3397802,-1.1571314,-3.0138564,0.3885542,0.45299876,0.51828736,-0.61253244
3510000000000,-3.517929,-1.5542426,-0.23393169,-1.3096951,-1.0882565,-3.5340083,0.37960076,0.4238523,0.53659517,-0.6231517
3510020000000,-4.1105404,-1.1344223,-0.26402843,-1.227381,-1.1122329,-3.9568796,0.36679563,0.39148712,0.5560429,-0.6348347
3510040000000,-4.1286736,-0.444026,-0.40499848,-1.0311406,-1.0661125,-4.1092906,0.3510587,0.35705522,0.5748073,-0.6471986
3510060000000,-4.0418243,0.52831745,-0.6293318,-0.69058317,-0.9611965,-4.010025,0.3331619,0.32372174,0.59085226,-0.65962195
3510080000000,-3.9432411,1.7037091,-0.91504,-0.39706242,-0.8907942,-3.800498,0.31424627,0.29283008,0.60328937,-0.67196864
3510100000000,-3.5730777,2.796362,-1.2059227,-0.19746219,-0.8753699,-3.5081992,0.29565302,0.26403636,0.61256486,-0.683841
3510120000000,-2.7244916,3.6151125,-1.3202024,-0.031154128,-0.83108217,-3.1299207,0.28407162,0.24280316,0.61889577,-0.69088197
3510140000000,-1.9060144,4.4515057,-1.3691828,0.110872045,-0.7145596,-2.7009406,0.26877892,0.21972796,0.62302035,-0.7009444
3510160000000,-1.3078194,5.124709,-1.3018649,0.23472497,-0.54565537,-2.2348504,0.25828025,0.19796465,0.62618476,-0.7085154
3510180000000,-1.0733852,5.626232,-1.2501996,0.36835176,-0.36774087,-1.7417295,0.24663116,0.18348645,0.626593,-0.71616143
3510200000000,-0.9569206,6.0219564,-1.3618715,0.48243082,-0.23380867,-1.219287,0.24100089,0.17037638,0.6263239,-0.72153234
3510220000000,-0.61992884,6.2671328,-1.4693439,0.5390886,-0.10781772,-0.6974554,0.23461089,0.16485858,0.62364435,-0.7272188
3510240000000,-0.27506495,6.311258,-1.4716022,0.55924714,0.042455133,-0.17715092,0.23457003,0.1605994,0.62107974,-0.7303731
3510260000000,-0.23541355,6.2064457,-1.4116004,0.57360244,0.204029,0.33429602,0.23379025,0.16379349,0.61703265,-0.73333794
3510280000000,-0.5564909,6.042621,-1.4963467,0.5476407,0.30100384,0.8367327,0.23901527,0.16841435,0.6133072,-0.733732
3510300000000,-0.7383752,5.8489485,-1.5928469,0.4596761,0.34147367,1.3301591,0.2444473,0.17902751,0.6083918,-0.7335217
3510320000000,-0.8045993,5.489441,-1.649794,0.32284227,0.42256603,1.7944167,0.25598276,0.19030254,0.6043079,-0.7301162
3510340000000,-1.1106749,4.889905,-1.5834312,0.19120082,0.50808716,2.205529,0.26757526,0.20680036,0.5997194,-0.7252405
3510360000000,-1.5271444,4.260575,-1.5445174,0.088728175,0.5645922,2.555402,0.2825969,0.22474034,0.59544194,-0.7176905
3510380000000,-1.8268094,3.7801225,-1.540136,0.012064588,0.6073528,2.8591547,0.3000606,0.24775274,0.59022063,-0.70726365
3510400000000,-1.4676313,2.7848783,-1.0722084,-0.03634648,0.66416323,3.1204524,0.335432,0.30026463,0.5816815,-0.67747563
3510420000000,-1.7387638,2.0940385,-1.0065837,-0.024892759,0.7499898,3.3334916,0.35347778,0.32401797,0.5742512,-0.66355205
3510440000000,-2.0194302,1.2526684,-0.7444674,0.077121735,0.84940815,3.4976616,0.3713947,0.3489371,0.56554866,-0.6484317
3510460000000,-2.4953527,0.11270881,-0.07870048,0.3202461,0.9407325,3.591735,0.3884873,0.37536365,0.5549657,-0.63260806
3510500000000,0.0,0.0,0.0,1.2212723,0.8970556,3.460399,1.0,0.0,0.0,0.0
