timestamp,accel_x,accel_y,accel_z,gyro_x,gyro_y,gyro_z,rot_w,rot_x,rot_y,rot_z
264383740000000,0.0,0.0,0.0,0.0,0.0,0.0,1.0,0.0,0.0,0.0
264383880000000,-1.4488077,3.4032001,-5.521226,-1.6850718,-1.0024298,-2.0332649,0.78800577,-0.44949934,0.36008528,0.21756792
264383900000000,-1.4629474,4.02695,-5.189399,-1.564426,-0.72204274,-1.8724546,1.0,0.0,0.0,0.0
264383920000000,-1.2540121,4.6146584,-4.8938355,-1.4205672,-0.5103779,-1.6313156,1.0,0.0,0.0,0.0
264383940000000,-0.69075346,5.0802674,-4.558528,-1.2278391,-0.2501493,-1.328021,0.78318155,-0.49808392,0.3134847,0.20066507
264383960000000,-0.20827389,5.33448,-4.05532,-0.91706145,0.057268616,-0.9599747,0.7801226,-0.5099017,0.30516306,0.19566458
264383980000000,-0.09606552,5.3392525,-3.423038,0.0,0.0,0.0,1.0,0.0,0.0,0.0
264384000000000,0.0,0.0,0.0,0.22327125,0.5166393,0.029626964,1.0,0.0,0.0,0.0
264384020000000,-0.3948412,4.8924828,-3.2303627,0.72433347,0.6272059,0.5468771,0.7763196,-0.51539475,0.3120056,0.18533379
264384040000000,-0.30862522,4.739259,-3.5583336,0.99280876,0.73731434,1.0180069,1.0,0.0,0.0,0.0
264384060000000,0.0,0.0,0.0,1.1322387,0.872621,1.4391985,0.77761364,-0.4957259,0.33817545,0.18764366
264384080000000,-1.0863819,4.1719313,-3.6043644,1.1064297,1.010982,1.8455766,0.77677506,-0.48269477,0.35601935,0.19203225
264384100000000,-1.5964255,3.977456,-3.5983453,0.7689266,1.1111639,2.2235496,0.76496416,-0.468284,0.39143008,0.20572445
264384120000000,-1.9125509,3.7133965,-3.536449,0.2171626,1.1426234,2.5517368,0.7551124,-0.4568072,0.41634277,0.21861221
264384140000000,-1.8645029,2.9495702,-3.0702891,-0.28955013,1.2431108,2.8350255,0.74310094,-0.4485064,0.43787193,0.23433118
264384160000000,-2.3315458,1.8923082,-2.4096084,-0.5537493,1.4775304,3.0931163,0.7274986,-0.4421211,0.45989102,0.25253716
264384180000000,-3.847084,0.6461413,-1.6079572,-0.49388456,1.6096299,3.3458617,0.7088795,-0.43527687,0.48404932,0.27151477
264384200000000,-4.74096,-0.58602524,-0.7454486,-0.2003638,1.4648548,3.539506,0.6897071,-0.42505783,0.50899225,0.29078662
264384220000000,-3.418809,-1.7767949,0.3070988,0.18112154,1.3420709,3.571271,0.6718679,-0.41040316,0.5332292,0.3095635
264384240000000,-1.4195957,-3.022206,1.5093873,0.6947065,1.496009,3.3539557,0.6550586,-0.39279968,0.5577464,0.32484707
264384260000000,-0.7163849,-4.0868535,2.9933078,1.3289373,1.8466456,2.8701503,0.6393518,-0.37395456,0.58357,0.33291644
264384280000000,-2.0997753,-4.9557276,4.378196,2.4559836,2.07572,2.3741279,0.6253564,-0.3537944,0.6118953,0.3306706
264384300000000,-3.5352888,-5.7335677,5.2692156,3.7811031,1.9336939,1.8967366,0.6167805,-0.32752693,0.6419628,0.31653088
264384320000000,-3.477559,-4.963327,5.771097,4.4921503,1.6922494,1.4468343,0.6136345,-0.29555473,0.6713365,0.2922456
264384340000000,-2.6507282,-3.080424,5.643492,4.0732493,1.2597568,0.98944896,0.61287594,-0.26404217,0.69622034,0.2644658
264384360000000,-1.5972118,-1.3194363,5.275779,2.7838657,0.8231409,0.6782131,0.6128856,-0.23958907,0.7130139,0.24203217
264384380000000,-0.74389935,-0.0006224513,4.82399,0.97219205,0.51007247,0.52183163,0.6115052,-0.22576548,0.7223701,0.23080932
264384400000000,-0.38877392,0.55193263,4.7598147,-0.9443977,0.22128594,0.4644103,0.6079095,-0.22381124,0.72497773,0.23401265
264384420000000,-0.22303677,-0.23909807,4.887104,-2.4097106,-0.08155051,0.398895,1.0,0.0,0.0,0.0
264384440000000,0.19709301,-1.894264,4.869128,-3.10457,-0.38621956,0.26297748,0.60206705,-0.24716282,0.7076301,0.27510995
264384460000000,1.0519161,-2.5427897,3.9330382,-3.1876476,-0.5849035,0.038179077,0.6399098,-0.27411944,0.65383095,0.29644388
264384480000000,1.4198303,-2.8895671,3.3069985,-2.8753426,-0.6776023,-0.20280726,0.66312855,-0.30491683,0.60794795,0.31254697
264384500000000,1.1748028,-3.7149985,3.1603222,-2.2249238,-0.73807794,-0.42943826,0.6616569,-0.32236135,0.59243244,0.32759285
264384520000000,0.019815445,-4.347682,2.564365,-1.3345878,-0.7848091,-0.6177375,0.6603272,-0.33839187,0.5779525,0.3397496
264384540000000,-0.701952,-3.8422656,2.090056,-0.3987423,-0.80939645,-0.75319684,0.67083186,-0.34912068,0.5579398,0.34176406
264384560000000,-1.3473005,-3.040653,1.5582495,0.35628715,-0.85902923,-0.83184576,0.6811408,-0.34623337,0.551111,0.3353305
264384580000000,-1.8041477,-2.3070502,1.0072641,0.8038987,-0.9492846,-0.8746063,0.6919826,-0.3429949,0.54354674,0.32874238
264384600000000,-2.399374,-1.7585349,0.55053115,0.9460775,-1.0022771,-0.9381363,0.70390135,-0.33837095,0.536175,0.32022557
264384620000000,-2.805953,-1.2926391,0.046316624,0.89812464,-1.041678,-1.0228939,0.715226,-0.33602434,0.5268163,0.31305587
264384640000000,-2.233325,-0.8124714,-0.7152839,0.7507534,-1.1720977,-1.1242975,0.72764504,-0.33373433,0.5156695,0.30535084
264384660000000,-1.3853531,-0.3764304,-1.3936416,0.5335908,-1.3316863,-1.281748,0.7400286,-0.33410674,0.50196964,0.29792073
264384680000000,-1.5346165,0.10788441,-2.0518994,0.2762638,-1.3674219,-1.5270104,0.75200325,-0.33752817,0.48659,0.2894758
264384700000000,-2.5694427,0.64965916,-3.1511543,-0.035430185,-1.377043,-1.7820467,0.76314247,-0.34459862,0.46893263,0.28101158
264384720000000,-3.9442997,1.1310434,-4.0946903,-0.45937067,-1.4129313,-2.0001256,0.77298856,-0.3559186,0.44857284,0.27311748
264384740000000,-4.45144,1.5863427,-4.5809,-0.9271407,-1.4914275,-2.1904101,0.78169256,-0.37093276,0.42469385,0.26646
264384760000000,-3.300578,2.1247764,-4.633189,-1.3593279,-1.7281377,-2.353511,0.78962445,-0.38854823,0.39698303,0.26062986
264384780000000,-2.5719957,2.6103466,-4.560571,-1.6911805,-1.7895297,-2.5642595,0.79529035,-0.40918744,0.3686676,0.2533045
264384800000000,-3.796956,2.9424553,-4.672777,-1.8483255,-1.4862351,-2.7953193,0.79909533,-0.4311545,0.34186,0.24224845
264384820000000,-5.4148293,3.4364848,-4.8860245,-1.8052595,-1.1760683,-2.9358184,0.80144066,-0.45294428,0.31528777,0.23049508
264384840000000,-5.662284,4.1534176,-5.1829524,-1.6226108,-1.1236867,-2.9411635,0.80433017,-0.47117716,0.289569,0.21724379
264384860000000,-4.546641,4.754079,-5.3318872,0.0,0.0,0.0,0.80610496,-0.48771206,0.26365048,0.2069305
264384880000000,-3.1963806,5.0454407,-5.0873537,-1.3028228,-1.0858129,-2.5340219,0.80343384,-0.5029172,0.24879582,0.19917114
264384900000000,-2.5969067,5.2679663,-4.629283,-1.1991285,-0.7852673,-2.2342396,0.80264944,-0.51621264,0.2306701,0.18992057
264384920000000,-2.4612846,5.5196056,-4.1737065,-0.968985,-0.44715336,-1.9022343,0.80227554,-0.5257102,0.21841247,0.17966264
264384940000000,-2.3487177,5.946055,-3.8623364,-0.57833666,-0.18051068,-1.500285,0.80202395,-0.5319177,0.20932204,0.1732211
264384960000000,-2.0486794,6.244829,-3.7485516,-0.16707164,0.014966198,-1.0224357,0.80316186,-0.5333536,0.20656207,0.16672489
264384980000000,-1.6888118,6.298829,-3.7033389,0.14676037,0.19028452,-0.52855116,0.803984,-0.5326613,0.20703146,0.16437656
264385000000000,-1.453382,6.197296,-3.6665254,0.40668353,0.38056904,-0.04520403,0.80551153,-0.5284102,0.21328816,0.16261038
264385020000000,-1.4217782,5.8960433,-3.6896915,0.6994407,0.55878896,0.44684792,0.80666137,-0.5219925,0.22208384,0.16583154
264385040000000,-1.6690845,5.53183,-3.7350903,0.9799806,0.7118107,0.91247994,0.8086336,-0.5116361,0.2363837,0.16870993
264385060000000,-2.0177398,5.2606225,-3.8227763,1.1914927,0.8022188,1.3367258,0.81000954,-0.49940726,0.25263092,0.17508473
264385080000000,-2.1290913,5.1729794,-4.058557,1.261284,0.8147415,1.7238617,0.8103778,-0.48585808,0.2711356,0.1836169
264385100000000,-2.4091978,4.9551873,-4.324515,1.1157454,0.8359691,2.087021,0.80721927,-0.47441658,0.2902861,0.19763589
264385120000000,-3.0952406,4.496008,-4.4572096,0.7684685,0.95264435,2.4346035,0.79725504,-0.46495467,0.31821796,0.21665397
264385140000000,-4.102005,3.971706,-4.5227594,0.31016684,1.0810788,2.784629,0.7866727,-0.45763394,0.34104645,0.23538187
264385160000000,-4.8371177,3.2537198,-4.2577777,-0.2275473,1.156826,3.1477885,0.7716922,-0.4531109,0.36412698,0.25805676
264385180000000,-4.896821,2.1066384,-3.5845785,-0.818254,1.1643091,3.4796412,0.75195056,-0.45185968,0.38558444,0.2858631
264385200000000,-4.457938,0.88761973,-2.6271515,-1.3006848,1.1226176,3.7161987,0.7292558,-0.4512954,0.4065824,0.31497493
264385220000000,-4.313814,-0.30324244,-1.4607537,-1.5593863,1.1592696,3.816075,0.70374686,-0.45165488,0.42655304,0.344675
264385240000000,-4.2440443,-1.5166886,-0.1583848,-1.5001323,1.2379184,3.7811031,0.679097,-0.44904014,0.4470802,0.37055305
264385260000000,-3.165205,-2.698821,1.0670471,-1.0290025,1.1782063,3.6286924,0.65723014,-0.44230244,0.4670355,0.39280403
264385280000000,0.0,0.0,0.0,-0.17654006,1.0714576,3.3886223,0.6411974,-0.42872912,0.48921865,0.40709028
264385300000000,0.43251324,-4.544028,2.160039,0.88071495,1.1104003,3.0182853,0.6302674,-0.4105337,0.5144039,0.4118421
264385320000000,-0.039384842,-4.784778,2.3535378,2.0152445,1.3607023,2.480571,0.6240524,-0.38912523,0.5430516,0.4052594
264385340000000,-1.7961607,-4.064506,2.5212412,2.9339857,1.5909985,1.8687896,0.6211312,-0.36690313,0.57188594,0.39054415
264385360000000,-2.8818035,-2.7122471,2.459021,3.1781793,1.5375478,1.3477215,0.61954117,-0.34720895,0.59588325,0.37488377
264385380000000,-2.5202236,-1.7752476,2.7051551,2.537687,1.1976013,0.9737192,0.61752355,-0.33409598,0.61149615,0.36485195
264385400000000,-1.2980022,-1.7461891,3.0561934,1.3358096,0.7632761,0.65209866,0.6145543,-0.32938492,0.6186024,0.3621599
264385420000000,-0.45752335,-1.9483178,3.3751397,0.14355333,0.45631635,0.3407101,0.61057335,-0.33224466,0.61958313,0.3645962
264385440000000,-0.5039692,-1.8531445,3.4919524,0.0,0.0,0.0,0.6062893,-0.3406254,0.61630327,0.36953753
264385460000000,-0.6265745,-1.8768752,3.4170835,-1.2990049,0.13316862,-0.28053987,0.6022282,-0.3532524,0.60864514,0.3769416
264385480000000,-0.2139206,-2.2836854,3.6320553,-1.7773124,-0.10415252,-0.53023106,0.5991826,-0.3680093,0.5973228,0.38568762
264385500000000,0.47987556,-3.0471628,3.9484022,-1.9372064,-0.30848694,-0.7096727,0.59697354,-0.38372424,0.5836319,0.39465442
264385520000000,0.99090576,-3.5702906,4.027913,0.0,0.0,0.0,0.5986373,-0.39493972,0.571529,0.39876142
264385540000000,1.1045961,-3.787272,3.8378031,-1.0016663,-0.45005497,-0.875828,0.6031739,-0.4020812,0.56180066,0.39861268
264385560000000,0.8620901,-3.677826,3.484911,-0.23716843,-0.49266282,-0.90469146,0.6108827,-0.4038532,0.5554298,0.3939831
264385580000000,0.46971035,-3.2658446,3.0443316,0.53969944,-0.56184334,-0.8949176,0.62164724,-0.40059817,0.55161375,0.3857435
264385600000000,0.05185604,-2.5943708,2.476206,1.2116512,-0.65469486,-0.88254756,0.63497245,-0.3933176,0.5493096,0.37466025
264385620000000,-0.9132118,-2.0852146,1.8632858,1.6336064,-0.73792523,-0.9025534,0.64960015,-0.38410005,0.54726654,0.36192024
264385640000000,-2.586174,-1.8923988,1.2752844,1.8529071,-0.78984874,-0.94882643,0.6649401,-0.37369436,0.5450506,0.348033
264385660000000,0.0,0.0,0.0,1.9975294,-0.8801041,-0.9825767,1.0,0.0,0.0,0.0
264385700000000,-3.9862194,-0.08993995,-1.6575129,0.0,0.0,0.0,0.71543616,-0.3422003,0.52397317,0.31064793
264385720000000,-2.7659445,0.42458022,-2.3973486,1.0578659,-1.754405,-1.3249667,0.73169625,-0.3392279,0.5077637,0.30285487
264385740000000,0.0,0.0,0.0,0.4279111,-1.8866574,-1.6187929,1.0,0.0,0.0,0.0
264385760000000,0.0,0.0,0.0,-0.08827003,-1.9766072,-1.9593502,1.0,0.0,0.0,0.0
264385800000000,0.0,0.0,0.0,0.0,0.0,0.0,0.7837397,-0.37825,0.4096196,0.27366185
264385820000000,0.0,0.0,0.0,-1.625207,-1.8820758,-2.6875017,1.0,0.0,0.0,0.0
264385840000000,0.0,0.0,0.0,0.0,0.0,0.0,0.79627377,-0.42072383,0.34861407,0.25963038
264385860000000,0.0,0.0,0.0,0.0,0.0,0.0,0.79901624,-0.44347107,0.3173197,0.25340626
264385880000000,0.0,0.0,0.0,0.0,0.0,0.0,0.7992186,-0.46619675,0.28747624,0.24752314
264385900000000,-2.4420776,3.6710122,-4.539993,0.0,0.0,0.0,1.0,0.0,0.0,0.0
264385980000000,0.0,0.0,0.0,0.0,0.0,0.0,0.7596742,-0.55885744,0.23472728,0.23553456
264386000000000,0.0,0.0,0.0,0.0,0.0,0.0,0.75844675,-0.5636965,0.23257989,0.23002496
264386020000000,-0.109127045,4.765649,-2.4930937,-0.032375857,0.3979787,-0.43478334,1.0,0.0,0.0,0.0
264386040000000,0.0,0.0,0.0,0.0,0.0,0.0,0.76284,-0.5553653,0.24710746,0.22041409
264386100000000,0.0,0.0,0.0,0.0,0.0,0.0,0.77974665,-0.50559735,0.30096483,0.21397844
264386120000000,-1.1927271,4.318367,-2.9555874,0.0,0.0,0.0,1.0,0.0,0.0,0.0
264386200000000,0.0,0.0,0.0,0.0,0.0,0.0,0.7284843,-0.42824447,0.4660268,0.26217636
264386240000000,-2.493225,0.54118276,0.27160025,-0.19960022,1.6584991,2.337934,1.0,0.0,0.0,0.0
264386260000000,-2.5467768,-0.2882023,0.84609514,0.0,0.0,0.0,1.0,0.0,0.0,0.0
264386300000000,0.0,0.0,0.0,0.3483459,1.5891659,2.3860397,1.0,0.0,0.0,0.0
264386340000000,0.0,0.0,0.0,0.0,0.0,0.0,1.0,0.0,0.0,0.0
264386440000000,0.0,0.0,0.0,0.0,0.0,0.0,0.595222,-0.29028168,0.67927384,0.31628224
264386600000000,0.36248302,-1.8709918,-0.052663565,-4.1532726,-1.3448198,-1.1603385,1.0,0.0,0.0,0.0
264386620000000,0.0,0.0,0.0,0.0,0.0,0.0,0.6062063,-0.42798576,0.512904,0.43159193
264386660000000,0.0,0.0,0.0,0.0,0.0,0.0,0.59591377,-0.50240856,0.43438348,0.45142373
264386780000000,0.0,0.0,0.0,-0.7501425,-0.43172902,-1.3307699,0.57886636,-0.5980113,0.2889781,0.47306237
264386860000000,-0.42987347,2.1693745,-0.254111,0.0,0.0,0.0,1.0,0.0,0.0,0.0
264386960000000,-0.107584,2.4035778,0.68606806,0.0,0.0,0.0,1.0,0.0,0.0,0.0
264386980000000,0.0,0.0,0.0,-0.56428677,0.19792034,0.41218132,1.0,0.0,0.0,0.0
264387020000000,0.0,0.0,0.0,0.0,0.0,0.0,0.5755721,-0.58856916,0.31465888,0.4725389
264387080000000,0.0,0.0,0.0,-0.15592335,0.0720821,1.0877982,1.0,0.0,0.0,0.0
264387120000000,-0.19931984,-0.17006087,0.5938259,0.0,0.0,0.0,0.54173666,-0.57370037,0.34688094,0.5070138
264387140000000,0.0,0.0,0.0,0.0,0.0,0.0,0.5349983,-0.5691893,0.35606942,0.51284975
264387160000000,0.0,0.0,0.0,0.0,0.0,0.0,0.5288894,-0.5640281,0.3660342,0.51784873
