timestamp,accel_x,accel_y,accel_z,gyro_x,gyro_y,gyro_z,rot_w,rot_x,rot_y,rot_z
264359860000000,0.0,0.0,0.0,0.0,0.0,0.0,1.0,0.0,0.0,0.0
264360140000000,-1.1364241,2.2551947,-2.040501,0.0,0.0,0.0,0.76466143,-0.25203416,0.5930736,-0.005947355
264360160000000,-1.2713642,1.8766799,-1.9759612,0.8567385,0.88040954,1.8498527,1.0,0.0,0.0,0.0
264360180000000,-1.8626423,1.4431612,-1.842413,0.26923886,0.9437868,1.914299,0.7576397,-0.21701908,0.6154759,0.008622616
264360200000000,-2.4952412,1.0303392,-1.4925125,-0.36025777,0.87995136,1.9704986,0.7513302,-0.20575877,0.62664974,0.021825867
264360220000000,-2.2039356,0.4289918,-0.82469875,-0.98731095,0.66950834,2.0040963,0.7443288,-0.19867995,0.6363441,0.0395875
264360240000000,-1.1487265,0.041118145,0.17485672,-1.870622,0.49098295,1.8941404,0.7370031,-0.19701745,0.643519,0.062401492
264360260000000,0.0,0.0,0.0,-2.4510968,0.551764,1.8202257,0.72790927,-0.2023844,0.64893144,0.08987061
264360280000000,-1.4476261,-2.293885,0.9583081,-2.4697282,0.64751714,1.7101172,0.71684265,-0.21019624,0.6542195,0.1181144
264360300000000,-3.097063,-3.3494132,1.2747612,-1.9533943,0.53969944,1.6881261,0.7055234,-0.21646677,0.65940166,0.14341678
264360320000000,-2.6024504,-4.3906116,1.6894089,-1.028697,0.25381452,1.7447839,0.69720554,-0.21597207,0.6634963,0.1644175
264360340000000,0.041249275,-4.2817516,1.6464447,-0.44791695,0.29184088,1.5195273,0.6918664,-0.2091927,0.6673389,0.17949408
264360360000000,1.5997705,-3.8197482,1.7554513,-0.24419338,0.538325,1.0920744,0.6871709,-0.20416439,0.67134106,0.18818681
264360380000000,1.0544748,-3.1911688,1.9441102,0.019394971,0.6957755,0.6963864,0.7014747,-0.21674953,0.65659356,0.17273581
264360400000000,-0.23004913,-2.9568567,2.6541522,0.0,0.0,0.0,0.69651407,-0.21317801,0.66279364,0.17357402
264360420000000,-0.49065018,-2.357996,2.4733613,0.15485434,0.2929099,0.27305678,0.6938506,-0.20949681,0.6669323,0.17286943
264360440000000,0.14638901,-1.9798433,1.6818773,-0.3707952,0.09850202,0.115453534,0.6943172,-0.21004832,0.66629374,0.17278841
264360460000000,0.57159233,-2.0226395,1.1939377,-0.8718574,0.0016798794,-0.011759156,0.69883007,-0.22009647,0.6586657,0.17132896
264360480000000,0.5492687,-2.474217,1.3793938,-1.0181596,-0.06566802,-0.086437434,0.7015605,-0.23182064,0.651346,0.1726862
264360500000000,0.41560173,-2.668082,1.8547103,-0.9560041,-0.1498147,-0.14355333,0.6989336,-0.24645095,0.64564127,0.1841229
264360520000000,0.3297863,-2.3098066,2.0234585,-0.98471475,-0.25534168,-0.22693644,0.6991317,-0.25401932,0.6411607,0.18868451
264360540000000,0.46483803,-1.9440469,1.8304996,-1.1313224,-0.34895676,-0.34773505,0.70016813,-0.269237,0.6310013,0.19777142
264360560000000,0.7917881,-1.8156564,1.5945972,-1.2041681,-0.3866777,-0.50778174,0.71012497,-0.28156722,0.61497664,0.19556645
264360580000000,0.88210106,-1.8542788,1.4663033,-1.0679451,-0.34422258,-0.6965391,0.7169372,-0.30216467,0.5959879,0.1987356
264360600000000,0.60023403,-1.8579981,1.4550903,-0.7377725,-0.2771801,-0.8750645,0.7194146,-0.31329533,0.5875235,0.19774902
264360620000000,0.1254158,-1.7140138,1.3789552,-0.2947425,-0.23564127,-1.0115929,0.71867055,-0.32883438,0.5786453,0.20137084
264360640000000,0.0,0.0,0.0,0.21303925,-0.2078469,-1.099252,0.7220111,-0.33469158,0.5734706,0.1944561
264360660000000,-0.59800243,-1.2778604,1.0718572,0.7200574,-0.19410244,-1.1432343,0.7250452,-0.34226593,0.566813,0.18943748
264360680000000,-0.786644,-0.88197184,0.7899871,1.1308643,-0.19807306,-1.1554517,0.7316037,-0.34128535,0.5632473,0.17616148
264360700000000,-0.86973953,-0.34768534,0.49071383,1.404532,-0.1994475,-1.1507174,0.7378163,-0.34162554,0.558255,0.16513802
264360720000000,-1.161089,0.045644045,0.26143515,1.6397151,-0.2125811,-1.1110111,1.0,0.0,0.0,0.0
264360780000000,-1.8671522,0.97199225,-1.1743766,1.7705929,-0.50533825,-1.0164797,0.77309084,-0.312314,0.54282135,0.10067554
264360800000000,-2.528655,1.0136468,-1.8124083,1.5234979,-0.52458054,-1.0027353,0.78188396,-0.30439776,0.53726435,0.08571284
264360820000000,-3.8697748,1.0812266,-2.384286,1.2678508,-0.59971696,-0.94027436,0.78956056,-0.29871958,0.53112996,0.07253734
264360840000000,-4.281725,1.5518422,-2.8398137,1.0161743,-0.944245,-0.8614727,0.7973546,-0.29376808,0.5235633,0.06170557
264360860000000,-2.2063675,2.1088357,-3.2443378,0.55848354,-1.2301298,-0.95630956,0.80618495,-0.29135245,0.51209575,0.054199237
264360880000000,0.0077705383,2.4425726,-3.3893566,0.11071932,-1.0966558,-1.2024882,0.8137425,-0.2938512,0.4991901,0.04779063
264360900000000,0.13630629,2.3352118,-3.446615,-0.07727446,-0.796721,-1.4563028,0.81873447,-0.300684,0.48751372,0.039917897
264360920000000,-1.4966211,2.2768943,-3.374034,-0.072540246,-0.6478226,-1.5763378,0.8121733,-0.30704352,0.4945143,0.039425913
264360940000000,-3.2310266,2.8921485,-4.1067944,-0.18753563,-0.75426584,-1.5502232,0.81560063,-0.31532013,0.48427787,0.029046481
264360960000000,-3.1702318,3.644321,-4.854155,-0.5297729,-0.9082039,-1.4370605,0.8189148,-0.3250367,0.47252426,0.021231297
264360980000000,-1.5151482,3.688356,-4.570439,0.0,0.0,0.0,0.80358243,-0.33376256,0.49151027,0.0357139
264361000000000,-0.7505884,3.9249198,-4.4062986,-1.1527027,-0.5354234,-1.0661125,0.80345035,-0.3476991,0.48209047,0.034081522
264361040000000,-0.18780565,4.4316783,-3.2938328,0.0,0.0,0.0,0.79436845,-0.38592848,0.46748483,0.038678728
264361060000000,0.46374464,4.580269,-3.071325,-1.1232284,-0.116217114,-0.2096795,0.7903375,-0.3943679,0.4668383,0.043619335
264361080000000,0.61043406,4.274412,-2.7465844,-0.9779953,0.08597928,0.12614368,0.78571796,-0.39964804,0.46957693,0.049258027
264361100000000,0.11401558,3.7551277,-2.4216354,-0.68951416,0.3379612,0.46105054,0.7812924,-0.40046164,0.47562248,0.05473646
264361120000000,-0.5952959,3.499968,-2.477267,-0.24724771,0.52641314,0.79549927,0.7778896,-0.3959592,0.48425567,0.060004514
264361140000000,-1.0305595,3.4289103,-2.67882,0.16340645,0.6058256,1.1102476,0.7739484,-0.38697687,0.49664786,0.06777799
264361160000000,-0.9883213,3.166135,-2.6204817,0.3529274,0.60994893,1.3519975,1.0,0.0,0.0,0.0
264361180000000,-0.8009863,2.477601,-2.20216,0.3324634,0.63117653,1.5425875,0.7486211,-0.35920238,0.54728866,0.104954004
264361280000000,-2.237688,-0.6062174,-0.65649605,0.0,0.0,0.0,1.0,0.0,0.0,0.0
264361300000000,-2.4787464,-1.815788,0.023636878,0.0,0.0,0.0,0.69504493,-0.30995706,0.6213487,0.18645392
264361320000000,-3.2761087,-3.0761468,0.9945456,0.0,0.0,0.0,0.684944,-0.29825923,0.6344082,0.19854353
264361340000000,-3.0842638,-3.4199448,1.724464,0.15592335,0.90576047,2.1658227,0.6762248,-0.28400856,0.64695555,0.2085849
264361360000000,-1.2927895,-3.1545186,1.9401398,0.3587306,0.7506007,2.1268802,0.66845506,-0.26977605,0.6578375,0.21826276
264361380000000,0.79710484,-2.7754426,1.9646605,0.18127427,0.6556111,1.9385809,0.67453885,-0.2671022,0.65319854,0.21676093
264361400000000,2.5366826,-3.049222,2.3237844,-0.12721269,0.62964934,1.5552629,0.66690856,-0.2617507,0.66023326,0.22541441
264361420000000,2.8684053,-3.1392236,2.8080716,-0.28206703,0.6785186,1.0670289,0.6593568,-0.26037943,0.66654146,0.23059441
264361440000000,1.0700369,-2.801713,3.0604618,-0.27870727,0.86742866,0.5795584,0.6729362,-0.268751,0.6523052,0.22232309
264361460000000,-0.99643135,-2.7393885,3.2511644,-0.26419923,0.9024007,0.21945333,0.6667576,-0.2718894,0.6572128,0.22266978
264361480000000,-1.7447844,-2.7404137,2.9388971,-0.38026363,0.6377433,0.07666359,0.6622504,-0.27610436,0.6591537,0.22518252
264361500000000,-1.3551826,-3.2170742,2.7167764,-0.61651576,0.32177326,0.06352998,0.65905726,-0.28076258,0.6587195,0.2300097
264361520000000,-0.55297947,-3.7642617,2.9984455,0.0,0.0,0.0,0.65698195,-0.28525585,0.65683186,0.235745
264361540000000,-0.22767639,-3.4838238,3.2471702,-0.6881397,-0.078343466,0.04627304,0.6560274,-0.2892792,0.654354,0.24034673
264361560000000,-0.3716669,-2.7366657,3.0100043,-0.68661255,-0.15958855,-0.066737026,0.65561,-0.29485166,0.6505183,0.24507931
264361580000000,-0.20572376,-2.6106386,2.7389414,-0.91797775,-0.29886582,-0.23411411,0.6558045,-0.30332798,0.6441187,0.2510452
264361600000000,0.37934017,-2.9335265,2.761284,-1.2140946,-0.45753807,-0.45723262,0.65713453,-0.31466523,0.6349479,0.25690708
264361620000000,0.93489456,-2.964087,2.7346408,-1.2423472,-0.5172501,-0.7124216,0.66414243,-0.32778445,0.6206605,0.25739634
264361640000000,1.0668077,-2.2700138,2.2409484,-0.9298896,-0.47876564,-0.9816604,0.6820374,-0.3418984,0.596736,0.24866977
264361660000000,0.7833147,-1.6309305,1.6099043,-0.441961,-0.40698898,-1.1942415,0.6968182,-0.3517171,0.578431,0.2369748
264361680000000,0.41043854,-1.2916558,1.1652851,0.04642576,-0.366061,-1.3229814,0.70470643,-0.35923848,0.5679326,0.22757243
264361700000000,0.0,0.0,0.0,0.4905248,-0.3391829,-1.3837625,0.71156156,-0.36300355,0.5612321,0.21662655
264361720000000,-0.30128002,-0.49902916,0.40043914,0.9101892,-0.31322116,-1.3692545,0.71998525,-0.36215413,0.5563601,0.20230934
264361740000000,-0.5831928,0.08102989,0.033796906,1.2299771,-0.30100384,-1.299463,0.7289217,-0.3586605,0.55236644,0.18688838
264361760000000,-0.86104774,0.45271945,-0.07784319,1.4266758,-0.28909197,-1.1685852,0.7371834,-0.35452688,0.5484162,0.17352557
264361780000000,-1.4942493,0.36983752,-0.58347905,1.6569719,-0.22770002,-0.97249746,0.7463666,-0.34440523,0.54731095,0.15739357
264361800000000,-2.2513294,0.42041636,-0.9699743,2.3487768,-0.16126843,-0.66706485,0.7572646,-0.32581636,0.5486682,0.13913031
264361820000000,-2.3283854,1.326318,-1.5247315,2.9900327,-0.2284636,-0.42180246,0.769061,-0.30480203,0.5486714,0.120832555
264361840000000,-2.2475147,1.0671921,-1.4554379,2.5224154,-0.46028697,-0.4738787,0.7787421,-0.29135022,0.5451109,0.10737776
264361860000000,-2.4570942,0.12134218,-1.9267659,1.7166841,-0.59773165,-0.5326745,0.78687227,-0.2824212,0.54002625,0.097169414
264361880000000,-2.8984842,0.108138084,-2.526709,1.3942999,-0.6568329,-0.58016926,0.79470545,-0.27501458,0.534017,0.087385565
264361900000000,-2.805171,0.6620865,-3.037215,1.2391402,-0.75411314,-0.6290385,0.80283666,-0.26839617,0.52657974,0.07829812
264361920000000,-1.5352716,1.0761309,-3.2346249,1.0910053,-0.9558514,-0.69714993,0.81127536,-0.26399577,0.51693976,0.070085056
264361940000000,-0.31509495,1.4384265,-3.372843,0.817185,-1.1369729,-0.882853,0.8193424,-0.26298764,0.5056922,0.061571587
264361960000000,-0.5479784,1.4041114,-3.5517912,0.5893322,-1.0697777,-1.1314751,1.0,0.0,0.0,0.0
264361980000000,-2.1053905,1.5432684,-4.109126,0.5111415,-0.8846856,-1.3443617,0.8315018,-0.26703978,0.48553067,0.03942619
264362000000000,-3.2554092,2.0130548,-4.8850703,0.48838675,-0.82619524,-1.4259121,0.83714855,-0.2701879,0.47476792,0.027860552
264362020000000,-3.1111016,2.5592651,-5.516263,0.24770586,-0.9263771,-1.406059,0.84207916,-0.27621353,0.4628707,0.01895998
264362040000000,-2.1929126,2.8248296,-5.6091475,-0.21609358,-1.0021244,-1.3468051,0.842628,-0.2859039,0.45609298,0.01470168
264362060000000,0.0,0.0,0.0,-0.6947065,-0.89888823,-1.3045027,0.829621,-0.29691243,0.47242823,0.019582832
264362080000000,-1.3576622,2.807286,-4.3456907,-1.0471758,-0.6386596,-1.2539536,0.8160055,-0.3092763,0.487657,0.025958918
264362100000000,-1.0060196,3.1763062,-4.131074,-1.2881621,-0.51159966,-1.1746938,0.8135128,-0.32568285,0.48111862,0.025544055
264362120000000,-0.31721973,3.3759599,-3.9158986,-1.4327844,-0.40653083,-1.0441214,0.8103378,-0.34210292,0.47502023,0.025964187
264362140000000,0.0,0.0,0.0,-1.4537066,-0.23411411,-0.8752172,0.8062098,-0.35697493,0.47103456,0.026855964
264362160000000,0.5568981,3.3513732,-3.2521486,-1.269378,-0.048563786,-0.67164636,0.8021536,-0.3681676,0.4693083,0.027422257
264362180000000,0.6600771,3.4235718,-3.1525178,-0.8538369,0.13454308,-0.42256603,0.7989825,-0.37396112,0.47015426,0.027111376
264362200000000,0.0,0.0,0.0,-0.31322116,0.3191771,-0.13041973,1.0,0.0,0.0,0.0
264362260000000,0.0,0.0,0.0,0.0,0.0,0.0,0.7949996,-0.34617287,0.49743608,0.026408408
264362300000000,0.0,0.0,0.0,0.0,0.0,0.0,0.78609204,-0.32054976,0.526743,0.04300074
