accel_x,accel_y,accel_z,gyro_x,gyro_y,gyro_z,rot_w,rot_x,rot_y,rot_z,timestamp
0.0,0.0,0.0,0.0,0.0,0.0,1.0,0.0,0.0,0.0,245007703220378
0.0,0.0,0.0,1.6493362,-1.2005029,-2.17972,1.0,0.0,0.0,0.0,245008201991171
-4.2869883,1.3826847,-3.1979136,1.6849191,-1.2270756,-2.2017112,0.6275002,0.12001853,0.59118,-0.49228585,245008221934372
-4.574915,1.8231645,-3.639279,1.7244726,-1.1890492,-2.2269092,0.6211842,0.1118663,0.5777157,-0.5175526,245008241885206
-5.1246033,2.1585324,-4.3732123,1.7733418,-1.1985176,-2.193617,0.6144166,0.104116,0.5634187,-0.54241276,245008261843667
0.0,0.0,0.0,1.7582229,-1.3281738,-2.0938933,0.6084676,0.09602236,0.54771364,-0.56617725,245008281794498
-4.8276215,3.085013,-5.5302467,1.6487253,-1.4924965,-1.9501873,1.0,0.0,0.0,0.0,245008301737699
-4.1625767,3.3818846,-5.911844,1.4569136,-1.5693128,-1.8440495,0.60001624,0.076829806,0.5144822,-0.6077711,245008321680902
-4.0376964,3.6966996,-6.299486,1.1974486,-1.4382823,-1.8142698,1.0,0.0,0.0,0.0,245008341624103
-4.2137737,4.080397,-6.7564707,0.8935431,-1.370629,-1.7841847,0.5901369,0.054635946,0.48816925,-0.6406592,245008361574937
0.0,0.0,0.0,0.5164866,-1.410946,-1.720502,1.0,0.0,0.0,0.0,245008381533398
-2.6218514,4.784004,-6.995738,0.02565634,-1.3439035,-1.6656768,0.5806837,0.05557031,0.49570748,-0.6434225,245008401484229
-2.6078258,5.2395663,-7.1231947,-0.49510628,-1.0920744,-1.6120734,0.57586896,0.03777841,0.4938274,-0.6504477,245008421427430
-2.881518,5.5024047,-6.988449,-0.91690874,-0.84604836,-1.4549283,0.5707473,0.020034343,0.49592236,-0.6541461,245008441370634
-2.7519164,5.627708,-6.6754217,-1.2044735,-0.7246389,-1.1745411,0.56683826,0.0028294716,0.50020427,-0.6545854,245008461313835
-2.0748935,5.5481772,-6.2752953,-1.3775011,-0.5882632,-0.81122905,1.0,0.0,0.0,0.0,245008481234151
-1.4215856,5.393988,-5.6722913,-1.4175128,-0.33093625,-0.4352415,0.5633124,-0.024635142,0.51361966,-0.6467358,245008501131576
-1.2130303,5.094691,-5.119339,0.0,0.0,0.0,0.5623688,-0.031360615,0.5218321,-0.64066297,245008521082408
-1.5231376,4.9695587,-4.7850876,-0.7958047,0.3555236,0.26542094,0.5619439,-0.031622954,0.52917165,-0.6349776,245008541086645
-1.8650842,5.1258097,-4.756377,-0.25595254,0.57971114,0.6794349,0.5631512,-0.025155626,0.53427535,-0.62990296,245008561060365
0.0,0.0,0.0,0.21838433,0.73639804,1.0728321,0.5661384,-0.012924188,0.53718585,-0.6251013,245008581003566
-1.9499784,4.5647116,-4.6863627,0.5542075,0.91751957,1.3695599,0.5698685,0.0037733624,0.5389994,-0.6202543,245008600954400
0.0,0.0,0.0,0.84497935,1.1436925,1.6253597,0.5736516,0.02487871,0.5401337,-0.61527276,245008620912861
-2.4488435,3.8769233,-4.313289,1.0441214,1.3202325,1.8657352,1.0,0.0,0.0,0.0,245008640863692
-2.1704583,3.204111,-3.7970378,1.084744,1.410946,2.0720549,0.58147633,0.10654509,0.5590622,-0.58136296,245008660806893
-2.1450806,2.7339966,-3.630678,0.98731095,1.4918857,2.2269092,0.5846219,0.13596311,0.5609161,-0.5701791,245008680727209
-2.306428,2.338166,-3.6437554,0.77014834,1.6216946,2.3299928,0.5875245,0.16276076,0.5627172,-0.558277,245008700624634
-2.9727592,2.0261471,-3.6610231,0.41141775,1.8000672,2.3996315,0.5898268,0.18867789,0.56702155,-0.54313123,245008720575467
-3.827695,1.6610986,-3.3881793,0.0,0.0,0.0,0.59244657,0.21258643,0.57389253,-0.5238908,245008740579704
-4.193001,1.0246649,-2.764656,0.0,0.0,0.0,1.0,0.0,0.0,0.0,245008760553424
-3.782361,0.0025293827,-1.9543939,-1.1441506,1.6282613,2.7499626,0.6038326,0.25008896,0.5908107,-0.4730587,245008780496625
-3.7715282,-1.2349923,-1.1501468,-1.5505288,1.6612481,2.7808113,0.6108309,0.26457268,0.6009154,-0.44247907,245008800439828
-4.750554,-2.2401452,-0.24325186,-1.790446,1.7487545,2.7181976,0.6165985,0.27734032,0.6121284,-0.4101066,245008820383029
-5.037861,-3.0318418,0.4742837,-1.8425223,1.515404,2.717434,0.6230895,0.28854212,0.6212005,-0.37764138,245008840333863
-3.18297,-3.4822567,0.6314976,0.0,0.0,0.0,0.6318091,0.29706207,0.6267659,-0.3460289,245008860292324
-1.0710621,-4.1929846,0.8951621,-1.9523253,0.9569204,2.3857343,0.63975966,0.30255136,0.6319348,-0.3159567,245008880220267
-0.81272984,-4.885076,2.1933444,-1.7612772,1.2501358,1.8229746,0.6426078,0.30620208,0.63986355,-0.28960362,245008900117692
-2.4199905,-5.234526,3.5201619,-1.1725558,1.513266,1.2927436,0.6396359,0.3111017,0.6491259,-0.26966134,245008920060895
-3.2505398,-4.865998,3.6550555,-0.54473907,1.2872458,1.0138836,0.6352534,0.31768668,0.65563756,-0.25625697,245008940049872
0.0,0.0,0.0,-0.2667954,0.7965683,0.86422163,0.63315797,0.32370454,0.65823436,-0.24709101,245008960015964
-0.24443817,-4.930743,2.9706695,0.0,0.0,0.0,0.63164926,0.32733318,0.6603774,-0.2403622,245008979959165
0.0021972656,-4.676526,3.0660076,-0.2228131,0.63178736,0.2237294,0.6287026,0.3284939,0.6641224,-0.23614858,245008999909999
-0.47555065,-3.949058,3.2764914,-0.36361754,0.53878313,-0.02397646,0.6261546,0.32706013,0.6685432,-0.23240489,245009019868460
-0.22185993,-3.5199413,3.7387838,-0.72066826,0.23457226,-0.11285736,0.6269727,0.32173768,0.6718737,-0.227982,245009039796403
0.6812229,-3.7116811,4.146087,0.0,0.0,0.0,0.63575625,0.30396348,0.67107487,-0.23038813,245009059693828
1.3347483,-3.900086,4.0629983,-1.2701416,-0.14569137,-0.25961772,0.6507299,0.2713992,0.66568094,-0.24446267,245009079629402
1.4375248,-3.8876264,3.8254466,-1.0951287,-0.18982637,-0.4005749,1.0,0.0,0.0,0.0,245009099603121
1.1778116,-3.7665296,3.4231563,-0.74082685,-0.25518894,-0.54534996,0.6631976,0.2342673,0.6632129,-0.25580585,245009119576842
0.5869818,-3.7715487,2.9845312,-0.34574974,-0.33322698,-0.698219,0.6644429,0.22627799,0.6633306,-0.25943503,245009139550561
-0.09400368,-3.707552,2.6218023,0.0,0.0,0.0,0.6649704,0.2199994,0.6620641,-0.26661915,245009159516652
-0.5890684,-3.4491827,2.241114,0.4775439,-0.5551238,-0.9399689,0.66503125,0.21548861,0.6589949,-0.27753177,245009179475112
-0.81426144,-3.012309,1.812644,0.8894198,-0.67149365,-1.0650436,0.6644858,0.21257086,0.65413946,-0.2921879,245009199425944
-0.9773512,-2.5240154,1.19377,1.1942415,-0.7725918,-1.231657,0.6632537,0.21021897,0.6479028,-0.31003955,245009219369146
-1.2631693,-2.0414023,0.54050183,1.3338243,-0.8362745,-1.4411838,0.66121334,0.20706901,0.64104366,-0.33012494,245009239312349
0.0,0.0,0.0,1.3729197,-0.8605564,-1.6384933,0.65824765,0.20265369,0.63407266,-0.35155854,245009259255550
-2.5227652,-1.1418645,-0.12316644,1.4034629,-0.9088148,-1.7896825,0.6545261,0.19741766,0.62657493,-0.37420005,245009279198754
-3.2319508,-0.7605498,-0.5414071,1.4495832,-0.9976957,-1.8851302,0.65062,0.191247,0.61815816,-0.39749068,245009299141955
-4.0119095,-0.53767824,-1.4713097,0.0,0.0,0.0,0.64615965,0.18570812,0.6085236,-0.42153198,245009319092788
-5.3323164,-0.52112794,-2.4315457,1.5917621,-1.0170907,-1.8727602,0.64119095,0.18036036,0.5985594,-0.44505173,245009339051249
-6.142337,-0.10860348,-2.9630086,1.5386169,-1.2081387,-1.6875153,0.6378432,0.17476514,0.5869802,-0.46697694,245009359002081
-4.5264587,0.33279347,-3.1956766,1.5370897,-1.7214183,-1.4046847,0.6386897,0.16827194,0.57102513,-0.48753503,245009378945282
0.0,0.0,0.0,1.5460999,-2.0636556,-1.3611605,0.6413304,0.16024226,0.5520923,-0.5081456,245009398888485
0.0,0.0,0.0,1.4146112,-1.8585575,-1.6404786,0.6362109,0.15792151,0.5463834,-0.5213075,245009418831686
-2.3694582,1.6925576,-5.116464,0.0,0.0,0.0,0.63095355,0.14737357,0.5349774,-0.54219735,245009438782520
-4.7055917,2.1578703,-5.7617126,0.0,0.0,0.0,1.0,0.0,0.0,0.0,245009458740980
-5.1890707,2.7618673,-6.355724,0.6649268,-1.5445728,-1.8965839,0.62075114,0.12105126,0.51474285,-0.57883894,245009478691811
-3.835462,3.1220417,-6.779895,0.2180789,-1.8183931,-1.719433,0.61999625,0.102963544,0.5041463,-0.5923172,245009498635013
-2.1509123,3.157196,-6.388468,-0.33001995,-1.6978999,-1.6780468,0.6144708,0.104736485,0.51976335,-0.58421046,245009518585846
-1.8230591,3.3678496,-5.978544,-0.763887,-1.3364204,-1.6927075,0.61036396,0.093234636,0.52750885,-0.5835216,245009538544307
-1.9373007,3.9264147,-5.7781453,-1.0415252,-1.1223122,-1.6475036,0.606856,0.077118866,0.53313875,-0.58441573,245009558495138
0.0,0.0,0.0,0.0,0.0,0.0,0.60450864,0.05567727,0.535364,-0.58724344,245009578438339
-0.924108,5.243733,-5.746917,-1.4445436,-0.86498517,-1.2863295,0.6023415,0.035177503,0.5394078,-0.5873556,245009598381542
-0.61599255,5.388259,-5.454689,0.0,0.0,0.0,1.0,0.0,0.0,0.0,245009618324743
-0.7438836,5.962396,-5.03819,-1.4117095,-0.18035796,-0.7554876,0.5958733,0.0039470443,0.55367315,-0.5816919,245009638275577
-0.6467204,6.2425213,-4.6814966,-0.96486163,0.02855795,-0.267559,0.594245,-0.0025304018,0.5595457,-0.5777328,245009658234038
-0.4598794,5.591715,-4.4038057,-0.44776422,0.2406809,0.21074851,1.0,0.0,0.0,0.0,245009678161982
-0.85042,4.744811,-4.2955136,0.14172074,0.5723807,0.63346726,0.5947505,0.00627386,0.56610024,-0.5707566,245009698059407
-1.3884921,4.839928,-4.6023912,0.68523806,0.77274454,1.0665708,0.5963567,0.021521894,0.5666364,-0.5681714,245009718002610
-1.4941425,5.3649273,-5.0570407,0.0,0.0,0.0,1.0,0.0,0.0,0.0,245009737991587
-1.3644562,5.3839917,-5.204093,0.7350236,0.89720833,1.6713274,0.6040113,0.0598442,0.5663883,-0.5574884,245009757965308
0.0,0.0,0.0,0.0,0.0,0.0,0.6073818,0.081677444,0.5727805,-0.54437006,245009777923769
-2.009678,4.1180677,-3.9578776,-0.27305678,1.3350459,1.8567249,0.6100262,0.10435893,0.58460766,-0.5246057,245009797874601
-2.857726,3.2219377,-3.5324621,-0.8362745,1.4541647,1.9523253,0.6124194,0.11815663,0.5959743,-0.50576293,245009817817802
-3.6035414,2.4059305,-3.4493752,-1.2571607,1.4556919,2.0993912,0.6156136,0.1301924,0.6087726,-0.48318303,245009837761005
-4.04488,1.6920404,-3.386053,-1.5558738,1.393689,2.277153,0.61994493,0.14107743,0.62171423,-0.45742413,245009857704206
-4.4668236,0.8091402,-2.9313521,0.0,0.0,0.0,1.0,0.0,0.0,0.0,245009877624523
-5.444191,-0.399724,-2.0914004,-1.796402,1.5241088,2.6606236,0.62884104,0.16400632,0.64745027,-0.3980817,245009897521948
-6.802083,-1.806495,-0.75828904,-1.5671748,1.5903877,2.8788552,0.63203853,0.17905049,0.65865314,-0.3669391,245009917472781
0.0,0.0,0.0,0.0,0.0,0.0,0.63670784,0.19880632,0.66424125,-0.3374355,245009937477018
-3.0718784,-3.9160397,1.1147251,-0.4390594,0.8509353,3.452916,0.6434208,0.22206336,0.6632969,-0.31102204,245009957450737
0.0,0.0,0.0,0.0,0.0,0.0,1.0,0.0,0.0,0.0,245009967422338
0.25679684,-4.335323,1.3260055,-0.15149458,0.8547532,3.246596,1.0,0.0,0.0,0.0,245009977393938
1.1082201,-4.4773245,2.1603577,0.06841691,1.3790283,2.5865562,0.64586294,0.2588516,0.6631296,-0.2758912,245009997337141
-1.277008,-4.683993,3.3433514,0.5132795,2.0299053,1.8978056,0.6354378,0.2799513,0.670177,-0.26212382,245010017280342
-3.933175,-4.31394,3.7635689,0.0,0.0,0.0,1.0,0.0,0.0,0.0,245010037231176
0.0,0.0,0.0,0.0,0.0,0.0,0.6128062,0.32331416,0.67599815,-0.2509244,245010057189637
-1.4119673,-4.5083966,3.614799,0.8539896,0.914618,1.2159272,0.6065478,0.34049508,0.6742002,-0.24822794,245010077117580
0.0,0.0,0.0,0.64904433,0.82451534,0.8605564,0.60113996,0.35168225,0.67457426,-0.24474485,245010097015006
-0.6954756,-4.71881,4.777859,0.5635232,0.80756384,0.5503896,0.5945973,0.36139482,0.67565566,-0.24359263,245010116958209
-1.1768122,-3.7279472,4.761925,0.18952094,0.55848354,0.3801109,0.5910679,0.36621192,0.67713547,-0.24086362,245010136947186
-0.70647717,-3.44796,4.8715205,-0.59574634,0.15454891,0.26313022,1.0,0.0,0.0,0.0,245010156920907
0.0,0.0,0.0,-1.303281,-0.1731803,0.115453534,0.60002404,0.3562,0.6796186,-0.22629932,245010176879368
0.8686962,-5.5407877,5.7754,-1.4474452,-0.40698898,-0.10842858,1.0,0.0,0.0,0.0,245010196830199
1.2702637,-5.807822,5.557333,0.0,0.0,0.0,0.6154556,0.33255404,0.6803986,-0.21835719,245010216773400
1.0931396,-5.1662693,4.868124,0.0,0.0,0.0,0.6214189,0.31858525,0.6790355,-0.22639073,245010236716604
0.34319687,-4.45349,4.0604877,0.0,0.0,0.0,1.0,0.0,0.0,0.0,245010256659805
-0.48032856,-4.068044,3.143891,-0.16493362,-0.8049677,-1.3316863,0.6272077,0.2955336,0.6777236,-0.24486972,245010276610639
-1.2536945,-3.8514202,2.4127789,-0.24480425,-0.894154,-1.534799,0.6301544,0.2811841,0.67711097,-0.25565952,245010296569100
-1.8648586,-3.813953,2.120456,-0.38087448,-0.9796751,-1.7172949,0.63336223,0.26437238,0.6766335,-0.266696,245010316497043
-2.0160065,-3.803968,2.089419,0.0,0.0,0.0,1.0,0.0,0.0,0.0,245010336394469
-1.7936335,-3.4770384,1.8821455,-0.12095132,-1.127199,-1.9532416,0.63896173,0.2291624,0.6732453,-0.29317778,245010356314784
-1.6141882,-2.9072495,1.4493804,0.0,0.0,0.0,0.63942754,0.21370992,0.66991943,-0.31091565,245010376257985
0.0,0.0,0.0,0.74113226,-0.9925033,-2.194228,0.6373508,0.20069768,0.6656864,-0.33221397,245010396231706
-2.9108677,-2.0390153,0.4930479,1.2614367,-0.9014844,-2.2360723,0.6329864,0.19091952,0.65995723,-0.35683954,245010416235942
-4.0477285,-1.6787474,-0.45887482,1.7643316,-0.9024007,-2.1713204,0.6274151,0.18473056,0.6517215,-0.38403645,245010436209662
-4.878475,-1.0402544,-1.7081834,2.0532708,-1.0462594,-2.0120375,0.62236506,0.18064396,0.6406129,-0.41187945,245010456152863
-4.8698835,-0.44022608,-2.8112636,0.0,0.0,0.0,1.0,0.0,0.0,0.0,245010476103697
-4.025647,0.18047857,-3.1776154,2.118939,-1.5112807,-1.6122261,0.6175844,0.17399187,0.61056584,-0.46424758,245010496062158
-2.8123465,0.7694695,-3.248733,2.057394,-1.7295122,-1.6015359,0.6169697,0.16886073,0.5928279,-0.48927465,245010516012989
-2.263958,1.4026749,-3.909462,1.9292651,-1.7232509,-1.7976238,0.614907,0.16159551,0.5755201,-0.5143472,245010535956190
-3.5744915,2.010297,-4.828403,1.6224581,-1.4320209,-2.068695,0.6094023,0.15229696,0.5617912,-0.5383541,245010555899394
0.0,0.0,0.0,1.1965322,-1.3368785,-2.1661282,0.60288304,0.14025785,0.550843,-0.55984986,245010575842595
-5.482088,3.1344411,-6.460248,0.6722572,-1.7169895,-2.0302107,0.599833,0.12352878,0.53971004,-0.577628,245010595793428
-3.7392359,3.6722903,-6.9040728,-0.008552114,-1.9488128,-1.9373591,0.59933126,0.10147374,0.53034794,-0.5909621,245010615751889
-1.0966997,3.0419097,-5.1926928,-0.72295904,-1.7553213,-1.9500346,0.5883685,0.13449878,0.5799884,-0.54712516,245010635702720
-0.33577347,3.1089642,-4.7607675,-1.2257011,-1.4494305,-2.0511327,0.58689356,0.1073423,0.5811933,-0.5533969,245010655645921
-0.22759008,3.4746528,-4.3082805,0.0,0.0,0.0,0.5827265,0.08080701,0.58520323,-0.5580656,245010675566237
-0.28914452,4.0805783,-4.063449,-1.4602734,-0.784351,-2.035403,0.57681,0.056336775,0.5905063,-0.5616215,245010695463663
0.0,0.0,0.0,-1.426065,-0.5703954,-1.866957,0.57028896,0.034179766,0.596302,-0.56393814,245010715414496
0.39111853,4.8793716,-3.7364354,-1.3040446,-0.34590244,-1.5928311,0.563723,0.015570975,0.6022603,-0.5650279,245010735418732
0.7828102,4.823835,-3.3601973,-1.0219775,-0.029321533,-1.2431108,0.5570173,0.0025360624,0.6081231,-0.5656073,245010755392452
0.0,0.0,0.0,-0.5360342,0.3407101,-0.8151997,0.55034983,-0.0029420366,0.61313975,-0.56671524,245010775335653
0.36402845,4.4090815,-2.6101198,0.1142318,0.63514715,-0.30192015,1.0,0.0,0.0,0.0,245010795278856
0.057091713,4.3599253,-2.5606303,0.77198094,0.81229806,0.27473664,0.5414768,0.011305647,0.6158255,-0.57221854,245010815222057
