accel_x,accel_y,accel_z,gyro_x,gyro_y,gyro_z,rot_w,rot_x,rot_y,rot_z,timestamp
-0.7017493,0.28399372,-1.0988647,-0.28405234,0.78877974,-3.202003,0.58276844,-0.29257512,0.6577417,-0.3770365,244698401759110
-1.0914621,2.107685,-0.35975635,-0.49205196,0.9839512,-2.9988902,1.0,0.0,0.0,0.0,244698421717543
-0.731771,3.0405269,-0.7803149,0.0,0.0,0.0,1.0,0.0,0.0,0.0,244698441668346
0.0,0.0,0.0,-1.1896601,0.98990715,-2.4200954,0.52316,-0.34785002,0.65875167,-0.41394484,244698461611519
-0.21867657,4.4970217,0.6173486,-1.2673926,1.1175779,-2.1154263,0.5024738,-0.36350894,0.6624957,-0.42009628,244698481554695
0.0,0.0,0.0,-1.1940888,1.1417072,-1.7609718,1.0,0.0,0.0,0.0,244698501497868
-0.9537778,4.75206,1.3258103,0.0,0.0,0.0,0.46461642,-0.38706392,0.6721262,-0.42726997,244698521418155
0.0,0.0,0.0,-1.7620409,0.95829487,-1.3048081,0.44588843,-0.39962307,0.6789588,-0.4248529,244698541315552
-1.4876823,3.6494484,2.7193384,-2.1762075,0.7273878,-1.0665708,1.0,0.0,0.0,0.0,244698561243470
0.0,0.0,0.0,-2.0882428,0.5177083,-0.82253003,0.41228473,-0.42558637,0.6945522,-0.40803775,244698581201903
-1.0862086,1.1435637,2.3153884,-1.6070337,0.32085696,-0.6401868,1.0,0.0,0.0,0.0,244698601175595
-0.86151004,1.4739709,1.1763713,-1.2620476,0.1459968,-0.56123245,0.39252973,-0.4431602,0.7024458,-0.39509404,244698621164546
0.0,0.0,0.0,-1.2756393,0.056963183,-0.43172902,0.38502735,-0.45070338,0.7056799,-0.38811892,244698641138238
0.0,0.0,0.0,-1.3286319,-0.116980694,-0.40622538,0.38394728,-0.45518637,0.7057736,-0.38376236,244698661096671
0.0,0.0,0.0,0.0,0.0,0.0,0.38178712,-0.4619034,0.7054708,-0.37841094,244698681024586
0.0,0.0,0.0,-0.73929965,-0.464563,-0.43203443,0.38075238,-0.46893528,0.7039255,-0.37365255,244698700921983
0.0,0.0,0.0,-1.5387696,-0.5180137,-0.54504454,0.3757998,-0.480216,0.7045503,-0.36300948,244698720865158
0.0,0.0,0.0,0.0,0.0,0.0,0.37414888,-0.4909455,0.7022751,-0.35467565,244698740854107
1.1856551,-2.6483564,1.5041494,0.6638578,-0.7111999,-0.795652,0.3804309,-0.49611205,0.69259936,-0.3597936,244698760850689
0.0,0.0,0.0,0.0,0.0,0.0,0.38762316,-0.49935696,0.6806455,-0.37028715,244698780854898
0.5858464,0.523592,0.2243824,0.0,0.0,0.0,0.39357165,-0.50321066,0.6705722,-0.3771118,244698800805702
0.0,0.0,0.0,0.0,0.0,0.0,0.39750108,-0.5085908,0.6620995,-0.38072628,244698820703099
0.63230056,0.5921078,-0.8786607,0.0,0.0,0.0,0.39397058,-0.52737194,0.64946634,-0.38060412,244698860589449
0.0,0.0,0.0,-0.064751714,-0.52473325,-0.73823065,0.39365965,-0.5348127,0.64388764,-0.38002133,244698880547882
0.35168254,0.14809704,-0.44645596,0.0,0.0,0.0,0.39284575,-0.5420053,0.6390253,-0.3788788,244698900506316
0.0,0.0,0.0,0.0,0.0,0.0,0.39140442,-0.5495669,0.6342765,-0.37745482,244698920449490
-0.057011962,0.5546913,-0.24363947,0.0,0.0,0.0,0.38853928,-0.55817205,0.6298872,-0.37513125,244698940377405
0.02113086,0.8338938,-0.16628599,-0.5338962,-0.43783766,-0.83459467,0.38512295,-0.56715,0.6255089,-0.37250486,244698960328209
0.017820954,0.830493,0.43567634,-0.5421429,-0.40011674,-0.8553641,0.3812898,-0.5760823,0.6211153,-0.3700853,244698980301900
-0.17205104,1.1657915,0.16779041,0.0,0.0,0.0,0.37843555,-0.5836028,0.6164131,-0.36909255,244699000252705
0.014142573,1.5131512,-0.21741915,-0.22128594,-0.35628715,-0.7498371,0.37678248,-0.59019655,0.61138207,-0.36866668,244699020180620
-0.025601193,0.766839,-0.17469978,0.0,0.0,0.0,0.3753937,-0.59605706,0.606719,-0.36835808,244699040116165
0.0,0.0,0.0,0.06856962,-0.36911532,-0.44684792,0.3766017,-0.59952205,0.60248774,-0.36844677,244699060059338
-0.22407396,0.7737541,-1.3805113,0.0,0.0,0.0,0.36784154,-0.6106942,0.6052677,-0.3541131,244699080002514
-0.37125564,-0.46846485,-1.6576552,-0.45372015,-0.39904773,-0.28099802,0.36615625,-0.6155979,0.6039292,-0.3496259,244699099945687
0.0,0.0,0.0,-0.39354995,-0.40546182,-0.21731532,1.0,0.0,0.0,0.0,244699119896493
-0.42020166,-0.58278275,-1.624979,-0.40576723,-0.36942077,-0.12675454,0.3648235,-0.62313026,0.6018049,-0.341238,244699139854926
-0.3265888,-0.3196745,-1.0837994,0.0,0.0,0.0,1.0,0.0,0.0,0.0,244699159805729
0.0,0.0,0.0,-0.44944412,-0.40118575,-0.098807454,0.3631627,-0.63043183,0.6006134,-0.3315602,244699179748902
0.16271193,-0.1467247,-0.093176365,-0.3184135,-0.40301836,-0.1133155,1.0,0.0,0.0,0.0,244699199699708
0.0,0.0,0.0,-0.1255328,-0.42531493,-0.119729586,0.36463565,-0.63610405,0.59752536,-0.32461658,244699219658141
0.42767847,0.13985825,-0.22563314,-0.00015271631,-0.45570546,-0.088422745,1.0,0.0,0.0,0.0,244699239608944
0.0,0.0,0.0,0.020463986,-0.43020186,-0.023060163,1.0,0.0,0.0,0.0,244699259552117
0.0,0.0,0.0,0.0,0.0,0.0,0.37170017,-0.6405811,0.59254074,-0.31684437,244699279495293
0.8216035,0.32075405,-0.53065634,0.0,0.0,0.0,0.37235272,-0.642428,0.59191114,-0.31349787,244699299438466
0.9522949,0.2893467,-0.26332808,0.0,0.0,0.0,0.37348253,-0.6442776,0.59105587,-0.30995193,244699319389271
1.0110884,0.43113422,-0.30140162,-0.13408493,-0.45982882,0.050701816,0.37463933,-0.6463032,0.58994883,-0.30642787,244699339347704
0.97282684,0.39836836,-0.47462606,0.0,0.0,0.0,0.37207747,-0.65029305,0.5888107,-0.30328086,244699359298508
0.8827746,0.11651707,-0.56578445,-0.3043636,-0.4185954,0.02275473,0.3722777,-0.6526719,0.5883675,-0.29875144,244699379241682
0.8829949,0.25311518,-0.40133333,0.0,0.0,0.0,1.0,0.0,0.0,0.0,244699419128030
0.79542077,0.27211666,-0.25328445,-0.2518292,-0.39446622,-0.120493166,0.37249222,-0.6611162,0.58449644,-0.28729597,244699439078836
0.0,0.0,0.0,-0.25030205,-0.37782016,-0.17012598,0.37244424,-0.66417193,0.58265656,-0.2840286,244699459037269
0.625575,-0.17429543,-0.32239246,-0.19425514,-0.36483926,-0.2144137,0.3726606,-0.6671627,0.5804135,-0.28131524,244699478965184
0.3975569,-0.16694355,-0.3315959,-0.15409076,-0.32559118,-0.26710084,0.3727708,-0.6701961,0.57781714,-0.27929646,244699498862581
0.23484841,-0.15100002,-0.2221756,-0.087964594,-0.31444287,-0.32513303,1.0,0.0,0.0,0.0,244699518805756
0.325464,0.31582642,-0.09094238,0.0,0.0,0.0,1.0,0.0,0.0,0.0,244699558768399
0.48689705,0.21197653,-0.12871218,0.0,0.0,0.0,1.0,0.0,0.0,0.0,244699578726832
0.0,0.0,0.0,-0.059864793,-0.49205196,-0.54000485,1.0,0.0,0.0,0.0,244699598677635
0.4875257,-0.2072115,-0.3593135,0.0,0.0,0.0,0.37704897,-0.69333667,0.55090755,-0.27132875,244699618620809
0.0,0.0,0.0,-0.049021937,-0.3911065,-0.51053065,0.37744597,-0.69737893,0.54602903,-0.27027667,244699638563985
0.11849485,-0.4748726,0.33479738,0.0,0.0,0.0,0.37784484,-0.7004018,0.54204804,-0.2699158,244699658507158
0.0,0.0,0.0,0.10751228,-0.2678644,-0.35369098,0.379306,-0.7024146,0.5382787,-0.27017942,244699678427446
-0.07393539,-0.8702364,0.84987926,0.28069258,-0.310625,-0.32635477,0.38251704,-0.70363116,0.53395903,-0.2710567,244699698324843
-0.027719855,-0.7609844,0.5365124,0.43417248,-0.34406984,-0.32986724,0.38665363,-0.7045819,0.529092,-0.27225912,244699718275648
0.019328773,-0.35308456,0.21347809,0.4961753,-0.33826664,-0.39935315,0.39092213,-0.7056896,0.5235183,-0.2740633,244699738279857
-0.028948471,0.17377758,0.11734867,0.48716503,-0.2939789,-0.39706242,1.0,0.0,0.0,0.0,244699758253548
0.0025480539,0.6698103,0.02654457,0.36392298,-0.2680171,-0.35277468,0.3977626,-0.7077858,0.51363224,-0.27750003,244699778196721
0.03594973,0.80899906,0.0093688965,0.20082195,-0.20693061,-0.25381452,0.3994392,-0.70887667,0.51054317,-0.2780071,244699798117009
0.0,0.0,0.0,0.05467244,-0.13240504,-0.15012014,0.39999852,-0.7097937,0.50888985,-0.27789432,244699818014407
-0.014762044,0.9544306,0.0049648285,0.0,0.0,0.0,0.39956895,-0.7103082,0.5088338,-0.2772997,244699837942324
0.0,0.0,0.0,-0.14431691,0.044593163,0.103847094,1.0,0.0,0.0,0.0,244699857900757
0.07663516,0.6994219,-0.029598713,-0.17333302,0.10903945,0.22876903,0.39733753,-0.7093848,0.51289535,-0.27538067,244699877874448
0.20237039,-0.0563612,-0.07927656,-0.04260785,0.11636983,0.30863968,0.39642218,-0.7061566,0.5188414,-0.2738539,244699917837091
0.24989973,-0.28747845,-0.123188496,0.0,0.0,0.0,1.0,0.0,0.0,0.0,244699937795524
0.0,0.0,0.0,0.06536258,0.07162395,0.14920384,0.39738894,-0.7032522,0.52194965,-0.27401993,244699957746328
0.25117838,-0.4527731,0.16068125,0.0,0.0,0.0,0.3977406,-0.7026542,0.5222966,-0.27438286,244699977689501
0.22432211,-0.56985664,0.3034196,0.0,0.0,0.0,0.39768234,-0.7024567,0.52235276,-0.27486533,244699997640306
0.09084639,-0.7135811,0.499341,0.034513887,0.055283304,-0.019394971,0.3975618,-0.7022846,0.5223218,-0.27553755,244700017598739
0.08284843,-0.6857538,0.60640526,0.0,0.0,0.0,0.398029,-0.7017935,0.52212584,-0.27648398,244700037549542
0.14005955,-0.36798954,0.58660316,0.1872302,0.03726278,0.0047342055,0.39929792,-0.7008402,0.5217271,-0.27782217,244700057492715
0.12213744,-0.12503147,0.46438313,0.24144448,0.06093381,0.01985312,1.0,0.0,0.0,0.0,244700077413003
0.0,0.0,0.0,0.23854288,0.087964594,0.03726278,1.0,0.0,0.0,0.0,244700097310401
0.094970435,0.36337376,0.15465307,0.17104226,0.10445796,0.046578474,0.40286824,-0.69692624,0.5216417,-0.2826322,244700117253576
0.13504511,0.41200352,0.001396656,0.07086037,0.12140947,0.05955936,0.40284055,-0.6960135,0.52237254,-0.28356946,244700137242525
0.16553329,0.33673477,-0.05433178,0.0,0.0,0.0,1.0,0.0,0.0,0.0,244700157216219
0.0,0.0,0.0,-0.01282817,0.17852537,0.10980303,0.40153885,-0.6941594,0.5250561,-0.28500077,244700177174652
0.17838475,0.3128376,0.051599026,-0.038331795,0.20082195,0.14248432,0.40062115,-0.6929758,0.5269765,-0.28562725,244700197125455
0.20509815,0.15818119,0.15772104,0.0,0.0,0.0,1.0,0.0,0.0,0.0,244700217068628
0.21971516,-0.020691872,0.17355728,-0.105832405,0.21456642,0.19349156,0.39810997,-0.69057924,0.53174275,-0.28610915,244700237019434
0.24737205,-0.17164326,0.12267017,0.0,0.0,0.0,0.39676148,-0.6893562,0.53433913,-0.28609446,244700256977867
0.2934664,-0.25753117,0.054294586,-0.10125092,0.20631973,0.21456642,0.395568,-0.688034,0.5369135,-0.28611025,244700276928670
0.2489095,-0.3702793,-0.006011963,-0.05665775,0.2171626,0.2182316,0.3946552,-0.6864552,0.53942186,-0.2864449,244700296871843
0.20323397,-0.27878094,0.07026625,-0.03268129,0.2264783,0.20891592,0.39382964,-0.6847766,0.54184496,-0.28702486,244700316815019
0.14246705,-0.19223118,0.0583539,0.0,0.0,0.0,1.0,0.0,0.0,0.0,244700336758192
0.13283049,-0.21671581,0.07270002,0.04810564,0.19043724,0.14721853,1.0,0.0,0.0,0.0,244700356708998
0.0468584,0.032500267,0.1146636,0.18066339,0.15775596,0.100334615,0.39392012,-0.6783623,0.5472437,-0.2918491,244700396618235
0.048212737,0.13934612,0.08543539,0.18448131,0.1441642,0.099571034,0.39468923,-0.67667776,0.54791826,-0.29345062,244700416561408
0.0,0.0,0.0,0.0,0.0,0.0,0.39531657,-0.67496425,0.548802,-0.2948976,244700436504583
0.0,0.0,0.0,0.15989397,0.15515977,0.12599096,0.39589736,-0.6731823,0.5498056,-0.2963186,244700456447756
0.09412056,0.18088818,0.13308573,0.13942999,0.14935656,0.12522738,0.39638752,-0.67150235,0.5508192,-0.29758996,244700476398562
0.11986396,0.13712597,0.12128687,0.098043874,0.14431691,0.11866058,0.39658555,-0.67004836,0.55189466,-0.2986092,244700496356995
0.12573463,0.08900261,0.109060764,0.070554934,0.1328632,0.11178834,1.0,0.0,0.0,0.0,244700516307798
0.13430658,0.06618118,0.08602047,0.0,0.0,0.0,1.0,0.0,0.0,0.0,244700536250971
0.12052217,-0.027542114,0.12570429,0.01572978,0.095294975,0.07742717,0.3963545,-0.6670148,0.55476767,-0.30037874,244700556194147
0.11672905,-0.020887375,0.123184204,0.012217305,0.07086037,0.053450707,1.0,0.0,0.0,0.0,244700576137320
0.13030061,-0.0473814,0.08985281,0.0,0.0,0.0,0.39608216,-0.6661838,0.55563265,-0.30098242,244700596088125
0.10880953,-0.061610222,0.03964567,0.012217305,0.020922136,-0.010842858,1.0,0.0,0.0,0.0,244700616046559
0.0,0.0,0.0,0.045356743,-0.004428773,-0.04505131,0.3961965,-0.66626066,0.5551068,-0.3016317,244700635997362
0.081225544,-0.01560688,0.035817146,0.09636399,-0.023823744,-0.06612616,0.39679644,-0.6663263,0.55424327,-0.302285,244700655940535
0.08025846,0.06619072,0.07557249,0.11835514,-0.034208454,-0.07467828,0.397573,-0.6663679,0.5532319,-0.30302498,244700675860823
0.0,0.0,0.0,0.0,0.0,0.0,0.39826068,-0.6665138,0.5522274,-0.30363274,244700695758220
0.12757918,0.013241768,-0.015190601,0.08384126,-0.040011674,-0.074067414,0.3987926,-0.6667303,0.5513193,-0.30410913,244700715709025
0.17544019,0.006819725,0.004866123,0.0,0.0,0.0,0.39932108,-0.6668666,0.5505159,-0.3045719,244700735713234
0.16542128,0.08279896,0.0062880516,0.09239337,-0.037110064,-0.058337633,0.39995685,-0.66693217,0.54969907,-0.30506876,244700755686926
0.14686294,0.16011143,0.008402824,0.0,0.0,0.0,1.0,0.0,0.0,0.0,244700775630099
0.1111134,0.18254471,-0.04583025,0.0,0.0,0.0,0.4009932,-0.66685337,0.54869354,-0.30569008,244700795573274
0.0,0.0,0.0,-0.022907447,0.00290161,0.022907447,0.40085673,-0.66681874,0.54896045,-0.30546534,244700815516447
0.0,0.0,0.0,0.0,0.0,0.0,0.40043026,-0.6667369,0.5496542,-0.30495545,244700835467253
0.0,0.0,0.0,-0.1067487,0.02367103,0.07391469,1.0,0.0,0.0,0.0,244700855425687
