timestamp,accel_x,accel_y,accel_z,gyro_x,gyro_y,gyro_z,rot_w,rot_x,rot_y,rot_z
6941600000000,-0.6862371,-0.5714655,0.69589996,0.0,0.0,0.0,1.0,0.0,0.0,0.0
6941620000000,0.0,0.0,0.0,0.07971791,-0.019700404,-0.013133603,0.76050276,-0.3543679,-0.36946633,0.39944163
6941640000000,-0.60881686,-0.07821083,0.46229935,0.0,0.0,0.0,0.76189846,-0.35149205,-0.36817595,0.40051287
6941660000000,-0.60554504,0.081196785,0.47529888,0.31337386,-0.009315695,-0.040927973,1.0,0.0,0.0,0.0
6941680000000,-0.65641236,0.13495874,0.6676011,0.1255328,-0.022449298,-0.05009095,0.7629173,-0.34920618,-0.36799604,0.4007385
6941700000000,-0.5052602,0.22580433,0.6851597,-0.15592335,-0.058337633,-0.04810564,0.76161176,-0.3512445,-0.37011626,0.3994856
6941720000000,-0.37011576,-0.37673092,0.6742315,-0.5083926,-0.09728029,-0.049785517,1.0,0.0,0.0,0.0
6941740000000,0.0,0.0,0.0,-0.88438016,-0.11071932,-0.093767814,0.75518745,-0.36328706,-0.37934902,0.39218462
6941760000000,-0.15717483,0.93448734,0.06581068,-1.1439979,-0.054367006,-0.089949906,0.7505441,-0.37272927,-0.38493282,0.38676
6941780000000,-0.28915596,1.57658,0.13102245,0.0,0.0,0.0,0.7439923,-0.38545275,-0.39214042,0.37964123
6941800000000,-0.4468403,0.66896534,0.35151505,-1.926669,-0.06154467,-0.059406646,0.7356421,-0.40025368,-0.4009539,0.3713001
6941820000000,-0.5170703,-0.18882751,0.79378986,-2.025629,-0.12034045,-0.05513059,0.7277366,-0.41311237,-0.408827,0.36414033
6941840000000,-0.7064636,-0.2922678,0.7792492,-1.4720325,-0.13194689,-0.01282817,0.7229657,-0.42000452,-0.41338846,0.36059228
6941860000000,-0.91338086,-0.11481285,0.6750674,-0.60139686,-0.11301007,0.035124753,0.7217049,-0.4210494,-0.4142896,0.3608652
6941880000000,-0.7546253,-0.08589172,0.35427475,0.0,0.0,0.0,0.7214123,-0.42034796,-0.4143741,0.36216843
6941900000000,-0.43512082,0.4017887,-0.02649188,-0.018936822,-0.10354166,0.060170226,1.0,0.0,0.0,0.0
6941920000000,0.0,0.0,0.0,-0.20677789,-0.05665775,0.059253927,0.71859425,-0.42356616,-0.41645572,0.3616335
6941940000000,-0.35805798,-0.12295437,0.37380433,-0.4448626,-0.062308256,0.03924809,0.7159431,-0.42706996,-0.41876093,0.36010566
6941960000000,-0.18491483,-0.65003204,0.585881,-0.47632217,-0.10842858,0.044745877,0.713335,-0.42990053,-0.4211464,0.35913008
6941980000000,-0.19103146,-0.3737545,0.28349853,-0.42577308,-0.16890424,0.010842858,0.71086127,-0.43203592,-0.42400932,0.35810247
6942000000000,-0.63503504,0.015417099,0.25383234,-0.40958515,-0.1600467,-0.019242255,0.70850456,-0.43449843,-0.42665374,0.35664985
6942020000000,-0.9169078,-0.28994846,0.50597095,-0.46074513,-0.12644911,-0.03268129,1.0,0.0,0.0,0.0
6942040000000,0.0,0.0,0.0,-0.45753807,-0.14508049,-0.05299256,0.70391285,-0.43916404,-0.43206802,0.35349536
6942060000000,-0.24788475,-0.33042812,0.1464386,0.0,0.0,0.0,0.70322716,-0.4395062,-0.43326622,0.352968
6942080000000,-0.25682902,0.045220375,0.18668723,-0.07513642,-0.042455133,-0.06093381,0.7032484,-0.43947178,-0.43374372,0.3523816
6942100000000,-0.34933448,-0.0055828094,0.47849512,-0.1255328,-0.004886922,-0.049785517,0.70301616,-0.43996644,-0.4342962,0.3515461
6942120000000,-0.44726872,-0.07532978,0.6288649,-0.08124508,0.0,-0.04230242,0.702589,-0.44063896,-0.43499258,0.35069573
6942140000000,0.0,0.0,0.0,0.044593163,0.0067195175,-0.04062254,0.7026736,-0.44060835,-0.43519205,0.35031703
6942160000000,0.0,0.0,0.0,0.123547494,0.023365596,-0.040011674,0.7033577,-0.4397336,-0.4348721,0.35044053
6942180000000,-0.56655765,-0.17550468,0.29337,0.13209961,0.013744468,-0.04016439,0.70420766,-0.43867198,-0.43440422,0.3506444
6942200000000,-0.41394424,0.056503296,0.20217371,0.12156218,0.013439035,-0.0364992,0.7049553,-0.43761083,-0.43404537,0.3509123
6942220000000,-0.33378506,0.221035,0.13276577,0.0,0.0,0.0,1.0,0.0,0.0,0.0
6942240000000,-0.37499833,0.10518932,0.18641973,0.14782938,0.029932396,-0.0143553335,0.70624006,-0.43609345,-0.43326154,0.3511866
6942260000000,-0.4109094,-0.06323242,0.29048848,0.31474832,0.03726278,0.0050396384,0.7073711,-0.4346295,-0.43227074,0.35194498
6942280000000,-0.4591663,-0.008742332,0.35053658,0.37827832,0.023518313,-0.0041233404,0.7092111,-0.43198115,-0.43056718,0.35358706
6942300000000,-0.50185394,0.23750305,0.43817592,0.18112154,-0.017104227,-0.04627304,0.71069,-0.4296493,-0.42951536,0.35473636
6942320000000,-0.49597216,0.37761974,0.5778649,0.054061573,-0.04046982,-0.04642576,0.71096885,-0.4288426,-0.42985204,0.35474592
6942340000000,-0.48635793,-0.14092827,0.32421732,0.21227567,-0.024129177,-0.025350908,0.7112998,-0.4279643,-0.42997536,0.35499367
6942360000000,-0.2256043,-0.73287106,0.056811094,0.49266282,0.009468411,-0.007483099,0.7129115,-0.42521697,-0.4287549,0.35653463
6942380000000,0.0,0.0,0.0,0.5151121,0.06307184,-0.0143553335,0.7154913,-0.42123887,-0.42652917,0.35875195
6942400000000,-0.1547172,1.0310879,-0.13998342,0.17333302,0.10094548,-0.0012217305,0.7175927,-0.41867608,-0.424539,0.35991356
6942420000000,-0.5636101,0.57249355,0.17710209,-0.13347405,0.08460484,0.067500606,0.7177305,-0.41955304,-0.42385644,0.35942146
6942440000000,-0.64736605,-0.1887207,0.32266212,-0.0032070426,0.013744468,0.10125092,0.7169561,-0.42119297,-0.42360452,0.3593462
6942460000000,-0.45155764,-0.59300995,-0.11668277,0.051159963,0.054061573,0.061850104,0.71705514,-0.42088997,-0.4227862,0.36046565
6942480000000,-0.5601289,0.40084457,-0.038497686,0.00992656,0.07544186,0.072540246,1.0,0.0,0.0,0.0
6942500000000,-0.4768598,-0.44960976,-0.014216185,0.09330966,0.06169739,0.02687807,0.7173458,-0.4217882,-0.42117167,0.3607274
6942520000000,-0.33905053,-0.9250202,0.13900495,0.2939789,0.09040806,-0.040927973,0.7186474,-0.42044646,-0.41988847,0.36119866
6942540000000,-0.28141308,-0.13546562,0.5747874,0.28069258,0.058337633,-0.07544186,1.0,0.0,0.0,0.0
6942560000000,-0.45695662,0.17834473,0.9427011,0.15821409,0.010537425,-0.069485925,0.7221286,-0.41614288,-0.41749778,0.36200982
6942580000000,-0.60296154,-0.11476898,0.9675238,0.15485434,-0.058490347,-0.065973446,0.7227599,-0.41488785,-0.4175118,0.36217406
6942600000000,-0.4917891,-0.18906307,0.6701758,0.23060162,-0.0720821,-0.062002823,0.72346973,-0.41290104,-0.41764387,0.36287466
6942620000000,-0.36607146,-0.08455086,0.48134828,0.25518894,-0.044593163,-0.06307184,0.7244906,-0.41057888,-0.41741487,0.36373523
6942640000000,-0.45819187,-0.069662094,0.4083979,0.25152376,-0.0032070426,-0.047800206,0.72567946,-0.40837497,-0.4168725,0.3644676
6942660000000,-0.5802059,-0.090950966,0.39538026,0.23289238,-0.016187929,-0.030085113,0.72678584,-0.40652236,-0.41613054,0.36518112
6942680000000,0.0,0.0,0.0,0.2857322,-0.024129177,-0.009315695,0.72774225,-0.4045472,-0.41550708,0.36617845
6942700000000,-0.32315874,0.18158245,0.27046776,0.0,0.0,0.0,0.7289933,-0.40209758,-0.4144253,0.36761132
6942720000000,-0.39737463,0.29292297,0.11122966,0.36300668,0.023518313,0.031001411,0.7304655,-0.39946404,-0.4129391,0.369229
6942740000000,-0.4874127,0.33917046,-0.00059485435,0.23854288,0.013897184,0.0346666,0.73174214,-0.39738438,-0.41132006,0.37074912
6942760000000,-0.35767746,0.060041428,0.25443006,0.120493166,-0.023365596,0.015271631,0.73217356,-0.3963814,-0.41078764,0.37156042
6942780000000,0.0,0.0,0.0,0.16920967,-0.010079277,0.009773844,0.7325554,-0.3954281,-0.4104226,0.3722265
6942800000000,0.0,0.0,0.0,0.20234911,-0.041691553,0.021838432,0.73320585,-0.39401025,-0.40976924,0.37316805
6942820000000,-0.50660896,0.06986618,0.3290558,0.0,0.0,0.0,1.0,0.0,0.0,0.0
6942840000000,0.0,0.0,0.0,0.46486846,-0.030390546,0.03390302,0.7348034,-0.38949433,-0.40819958,0.37647218
6942860000000,0.0,0.0,0.0,0.6094908,-0.016035212,0.03756821,0.7367979,-0.38538447,-0.40604675,0.3791224
6942880000000,-0.19485855,0.06423187,-0.029656887,0.58459806,0.011301007,0.03573562,0.73905903,-0.38084093,-0.403526,0.38199306
6942900000000,-0.17665792,0.20201206,-0.10625315,0.0,0.0,0.0,0.74106675,-0.37724534,-0.40114862,0.384169
6942920000000,-0.48292065,0.07356548,0.22845769,0.35033122,0.038331795,0.036957346,1.0,0.0,0.0,0.0
6942940000000,-0.36646628,0.06617355,0.3307171,0.3840815,0.016187929,0.05955936,0.743775,-0.37254667,-0.39748976,0.38731068
6942960000000,-0.27111173,0.035307884,0.2971778,0.40301836,0.049785517,0.056199603,0.74516386,-0.3698442,-0.39546376,0.3893002
6942980000000,-0.40139294,0.030647278,0.22383785,0.0,0.0,0.0,1.0,0.0,0.0,0.0
6943000000000,-0.33469534,0.097052574,0.075766325,0.015118915,0.055436023,0.040927973,0.7471337,-0.3667494,-0.39229706,0.39164943
6943020000000,-0.47408128,0.173913,0.08055329,-0.3100141,0.058948494,0.06688975,1.0,0.0,0.0,0.0
6943040000000,-0.38603616,0.43861008,0.53229594,-0.6565274,-0.013744468,0.07437284,0.74454576,-0.37262544,-0.39372203,0.38959593
6943060000000,-0.31814003,-0.19695759,0.7540631,-0.7318166,-0.06093381,0.057268616,0.7411542,-0.37847313,-0.39687636,0.3872179
6943080000000,-0.35334516,-0.7901449,0.6338892,-0.55833083,-0.047036625,0.019089539,0.7382414,-0.3832495,-0.39975223,0.38512048
6943100000000,-0.31693172,-0.18056011,0.28771925,0.0,0.0,0.0,0.73618054,-0.38680276,-0.40190518,0.38326752
6943120000000,-0.269459,0.50065804,0.12778926,-0.9326385,-0.02321288,0.027030786,0.7332293,-0.3920619,-0.40478522,0.38054094
6943140000000,-0.28998852,0.4462042,0.28735995,-1.2735013,-0.05467244,0.03145956,1.0,0.0,0.0,0.0
6943160000000,-0.3510449,-0.19235516,0.49353123,-1.1815661,-0.09697486,0.015118915,1.0,0.0,0.0,0.0
6943180000000,-0.45435023,-0.6452856,0.9996712,-0.90469146,-0.14172074,-0.028099801,0.7178447,-0.4168982,-0.4193692,0.36745664
6943200000000,-0.43000627,-0.18331909,0.81765556,0.0,0.0,0.0,0.71402115,-0.4219077,-0.42357606,0.36435023
6943220000000,0.0,0.0,0.0,0.0,0.0,0.0,0.7100321,-0.42732003,-0.42774656,0.36095002
6943240000000,-0.4379356,0.3251829,0.15801883,-0.9596693,-0.10705414,-0.019394971,0.7055788,-0.4334592,-0.43200594,0.35727113
6943260000000,0.0,0.0,0.0,-0.8071057,-0.0804815,0.014966198,0.70112896,-0.43964738,-0.43600112,0.353598
6943280000000,-0.66386724,-0.24670982,0.23172987,-0.5027421,-0.058184914,0.02031127,0.6979182,-0.44404626,-0.43856543,0.3512741
6943300000000,-0.66138744,-0.08015251,0.0602808,-0.3817908,-0.062155537,0.019242255,0.69588655,-0.44659302,-0.44024533,0.34997252
6943320000000,-0.41704607,0.21989346,0.056672692,-0.35613444,-0.02565634,0.036651913,1.0,0.0,0.0,0.0
6943340000000,0.0,0.0,0.0,-0.20387627,0.00030543262,0.046578474,0.69238317,-0.45137516,-0.44264862,0.34774736
6943360000000,-0.36194515,-0.3173399,0.18589854,0.11026118,-0.018478673,0.039095376,0.691986,-0.45191947,-0.44262844,0.34785658
6943380000000,-0.17437005,-0.20034409,0.14560139,0.24816401,-0.0047342055,-0.0013744468,0.692963,-0.4501651,-0.44181377,0.34921968
6943400000000,-0.22555947,0.24448586,0.18445897,0.081397794,0.013439035,-0.0076358155,0.6940011,-0.44870773,-0.44107458,0.34996745
6943420000000,-0.29133058,0.15517807,0.2780825,-0.07574729,0.005192355,0.013286319,0.69388056,-0.44900292,-0.44112778,0.3497606
6943440000000,0.0,0.0,0.0,0.0,0.0,0.0,0.6934117,-0.44975853,-0.4413081,0.34949192
6943460000000,-0.20174527,-0.11806965,0.36716855,0.0364992,0.02855795,0.023518313,1.0,0.0,0.0,0.0
6944000000000,0.0,0.0,0.0,0.0,0.0,0.0,0.70201296,-0.44106498,-0.43618912,0.34982643
6944060000000,-0.33020353,-0.015587807,0.35306716,0.0,0.0,0.0,1.0,0.0,0.0,0.0
6944080000000,0.0,0.0,0.0,0.0,0.0,0.0,0.7019269,-0.44034415,-0.43769452,0.34902608
6944160000000,-0.4619527,-0.17697716,0.4273454,-0.13881913,-0.018325957,0.0016798794,1.0,0.0,0.0,0.0
6944200000000,0.0,0.0,0.0,0.0,0.0,0.0,0.69809896,-0.44603366,-0.440634,0.3457653
6944300000000,0.0,0.0,0.0,0.0,0.0,0.0,0.69970274,-0.44372937,-0.44121867,0.34474128
6944360000000,-0.35042763,-0.033361435,0.19550562,0.0,0.0,0.0,1.0,0.0,0.0,0.0
6944380000000,0.0,0.0,0.0,0.15821409,0.04230242,-0.0125227375,1.0,0.0,0.0,0.0
6944420000000,-0.54814625,0.6325054,0.19888568,0.0,0.0,0.0,0.7043919,-0.4383686,-0.4374873,0.34679964
6944460000000,0.0,0.0,0.0,-0.17287487,0.08017606,0.13423763,1.0,0.0,0.0,0.0
6945400000000,0.0,0.0,0.0,0.44165558,0.7501425,0.49098295,1.0,0.0,0.0,0.0
