accel_x,accel_y,accel_z,gyro_x,gyro_y,gyro_z,rot_w,rot_x,rot_y,rot_z,timestamp
0.0,0.0,0.0,0.0,0.0,0.0,1.0,0.0,0.0,0.0,244350877010486
0.81330395,-1.3848767,-0.5715158,-3.339142,-0.30909783,-1.1963795,0.19594626,0.47608712,0.345383,0.78463787,244351495433223
0.0,0.0,0.0,-3.242931,-0.2875648,-1.1754575,1.0,0.0,0.0,0.0,244351515376436
-0.06772995,-1.0693936,0.88914824,-2.958726,-0.30757064,-1.2281445,0.2440479,0.4583692,0.30271295,0.7991891,244351535327281
-1.2263169,0.20220089,0.6688895,-2.7409523,-0.45204028,-1.208597,0.26862997,0.44928113,0.28563535,0.8027433,244351555285754
-0.88723373,0.73322487,-0.38834286,-2.7134633,-0.77121735,-1.1018482,0.29186308,0.4449311,0.26704666,0.803454,244351575236596
-0.48694372,-0.37189436,-2.5050945,-2.6160305,-0.84589565,-0.8374963,0.31241828,0.44210935,0.2470869,0.8036681,244351595179809
-2.276741,-2.3533187,-2.7969031,-2.3377812,-0.45356745,-0.6076582,0.32831872,0.43682355,0.22955385,0.8054173,244351615123024
-3.5498657,-1.6684475,-1.5104017,-1.7061466,-0.33078352,-0.4990769,0.34024435,0.43235698,0.21723424,0.8062943,244351635066236
-3.1416988,-0.2008462,-1.314712,-1.2878567,-0.3538437,-0.3303254,0.34892184,0.43045023,0.2076336,0.8061356,244351654994193
-2.460271,-0.16267395,-2.4007268,-1.4104879,-0.16508633,-0.22479841,0.35692576,0.42635956,0.19681893,0.8075171,244351674906887
-1.71015,-1.3299432,-4.5451717,-1.5538884,0.12217305,-0.182496,0.3647013,0.41951564,0.1854362,0.8103166,244351694834844
-1.7802725,-2.0596027,-4.167076,-1.4995215,0.61850107,-0.14950927,0.3709828,0.4085988,0.17622906,0.8150842,244351714778057
-1.6857429,-1.3930469,-1.7222986,-1.1801916,0.95630956,0.01786781,0.37379798,0.3961108,0.17024845,0.8212106,244351734751790
-0.45004463,-1.3654327,-1.0802345,-0.7180721,1.0415252,0.15607607,0.37324205,0.38520285,0.16790536,0.8271136,244351754756039
-0.27262306,-1.6293559,-2.224865,-0.3840815,1.2144,0.17608191,0.37095842,0.3741783,0.16873442,0.83301216,244351774729770
-1.7501976,-1.8610065,-1.8328729,-0.20326541,1.534188,0.10140363,0.36817965,0.36068666,0.17256437,0.83938694,244351794672983
-2.3027697,-1.1074753,0.5491147,0.09468412,1.5949692,0.1339322,0.36400938,0.34751478,0.17891702,0.8454109,244351814616198
-1.5823917,0.07602978,1.1463122,0.42745295,1.4407257,0.30757064,0.35875705,0.3332127,0.18736199,0.8515622,244351834559411
-1.7115507,0.5495157,0.20290232,0.29428434,1.3877331,0.38423425,0.36011156,0.3082307,0.2038322,0.8566014,244351854479737
-2.6582608,-0.12009573,0.4705348,-0.0693332,1.4083499,0.3585779,0.3563101,0.29217952,0.20811836,0.8627636,244351874377174
-2.4246182,0.101588726,1.8546519,-0.07345655,1.2466233,0.40103304,0.35060287,0.28182408,0.21052139,0.86794794,244351894328019
-1.7183338,0.48455763,1.5965118,-0.011453724,1.0024298,0.44638976,0.34454715,0.27420416,0.21279743,0.872248,244351914332267
-2.048349,0.6522927,1.0773611,-0.3631594,0.8906415,0.45799622,0.33979064,0.26604608,0.21150836,0.87694126,244351934313629
-2.976922,0.08625555,1.4155593,-0.83092946,0.8565858,0.46868637,0.33642918,0.2558831,0.20553493,0.8826634,244351954272101
-2.608464,-0.92982674,0.8295574,-0.8483391,0.75991637,0.4961753,0.34052938,0.2224527,0.19669166,0.89211375,244351974222944
-2.3420672,-1.7215106,0.120194435,-0.55680364,0.7276932,0.41538838,0.3366165,0.21491246,0.19326667,0.8961864,244351994166156
-2.8064435,-1.9216478,2.1468248,-0.27488935,0.7640397,0.29229903,0.3331919,0.20750865,0.19313237,0.8992348,244352014109372
-5.423635,2.775931,10.441671,-0.06047566,0.00045814895,0.44974953,0.32969058,0.20813176,0.19068329,0.9009025,244352034052585
-3.80978,0.8351908,1.3691616,0.61743206,-0.13958271,0.75991637,0.3210039,0.21387127,0.19597754,0.9015588,244352053972911
-2.0888278,-0.91009426,-0.8739233,-0.7516697,-0.29443705,0.20204368,0.32200435,0.21407261,0.18693626,0.90307313,244352073870348
0.6422632,-2.4173646,-0.4404173,-0.4100433,-0.44119743,0.40194935,0.32053137,0.21727456,0.17997184,0.90424645,244352093821192
1.6000841,-3.829631,-2.8458438,0.34422258,-0.42287147,0.5542075,0.31491774,0.22363757,0.18117167,0.904428,244352113825441
1.9485176,-3.500166,-2.3436012,0.6542367,-0.29245174,0.3707952,0.31048033,0.22921549,0.18560629,0.9036662,244352133806802
1.3611901,-2.1275842,0.9633608,0.93019503,-0.19425514,0.2602286,0.3064057,0.2343528,0.19171238,0.90246373,244352153765275
-0.6204102,-0.22985268,1.7845325,1.0708468,-0.23823744,0.322995,0.30125013,0.2404082,0.20016153,0.9007706,244352173716118
-1.2935007,0.57458544,-0.017313957,0.8520043,-0.3193298,0.30283645,0.30165356,0.23474841,0.21537314,0.89861715,244352193659330
0.0,0.0,0.0,0.38255435,-0.3100141,0.46914452,0.29725748,0.2396809,0.21656755,0.89849293,244352213602546
0.11192322,-0.8444743,-0.5247159,0.028099801,-0.23136522,0.58383447,0.29239056,0.24293394,0.21420328,0.89978206,244352233545758
0.49118972,-1.3428752,0.37196827,0.23060162,-0.21181752,0.61621034,0.286161,0.24756105,0.20351654,0.90299857,244352253466086
0.44604158,-0.9005017,-0.3456087,0.53023106,-0.25503623,0.63438356,0.2794871,0.25278372,0.20620069,0.90303314,244352273363523
0.42661595,-0.26634645,-1.0938029,0.52564955,-0.24495697,0.66721755,0.27264762,0.25792274,0.20872965,0.90308976,244352293314366
1.0011106,-0.1568737,-0.23166656,0.34422258,-0.1873829,0.70524395,0.26551127,0.26259324,0.2090218,0.9038022,244352313318615
1.6535008,-0.2968378,-0.045548916,0.2875648,-0.21044308,0.70157874,0.2587187,0.2670745,0.20878309,0.90451396,244352333292346
1.8319991,-0.408113,-1.3719301,0.25381452,-0.23991732,0.6365216,0.2507616,0.2774052,0.20727614,0.9039921,244352353235559
1.780272,-0.22743845,-1.10778,-0.015882496,-0.1704314,0.52778757,0.24185231,0.2940113,0.20216717,0.9023266,244352373186404
2.6193905,-0.25720406,0.34226418,-0.23640485,-0.09086621,0.44898596,0.23880573,0.29503316,0.1982735,0.9036675,244352393144877
3.695487,-0.4411111,0.7013335,-0.30757064,-0.093004234,0.3819435,0.23647091,0.29589373,0.1940656,0.90491265,244352413095719
4.048363,-1.1153789,0.13178253,-0.39584067,-0.076358154,0.27152961,0.23534359,0.29622012,0.18942504,0.9060824,244352433038932
4.435582,-0.8547168,0.062538624,-0.4885395,-0.047494773,0.122020334,0.23585208,0.29575217,0.18443982,0.90713084,244352452989778
3.6168156,-1.1078405,-0.49554062,-0.57848936,0.06872234,-0.07376198,0.23819089,0.2936727,0.17954156,0.90817755,244352472948250
3.3681521,-0.777174,-0.22616863,-0.59712076,0.1601994,-0.19700404,0.24154432,0.2903209,0.17504103,0.90924734,244352492899093
3.7285433,-0.2785697,0.21640396,-0.7478518,0.2556471,-0.26358834,0.24566525,0.28581175,0.16966021,0.91059077,244352512842305
2.9179149,0.14551973,-0.0012617111,-0.8707884,0.31642818,-0.3266602,0.25057706,0.28005552,0.16337064,0.9121898,244352532785521
2.306151,-0.1687541,-1.183805,0.0,0.0,0.0,0.25563207,0.27810404,0.15456867,0.91291785,244352552728733
1.0966196,-0.062142134,-0.2591343,-1.1936307,0.39935315,-0.4071417,0.26206776,0.2710198,0.1455222,0.9147088,244352572679578
0.23062086,0.15098953,1.5111437,-1.0987939,0.43982297,-0.410196,0.26807067,0.26330775,0.13776857,0.9164208,244352592638051
-0.29382086,1.0857,2.6285276,-0.9558514,0.33444872,-0.35338554,0.27332324,0.25719425,0.1308988,0.91761166,244352612588893
-1.487293,1.2347229,0.89078426,-0.6058256,0.01740966,-0.3135266,0.27769446,0.25499287,0.12627126,0.91756207,244352632532106
-3.153067,1.7506609,-1.6890097,-0.37873647,-0.07620544,-0.15882497,0.28018346,0.25467202,0.123354055,0.9172913,244352652475321
-3.575046,2.0853536,-2.7773256,-0.3118467,-0.10888673,0.021838432,0.28075343,0.25486588,0.12040495,0.91745496,244352672418534
-4.33316,2.1773942,-1.297142,-0.6626361,-0.017562376,0.2919936,0.27981016,0.2532306,0.11364083,0.91905737,244352692369379
-5.0417204,3.788791,0.74374104,-0.8709411,-0.16065755,0.5861252,0.27668715,0.25279608,0.1037052,0.9212946,244352712327852
-6.441073,4.79817,1.4194994,-1.2794572,-0.2950479,0.9256136,0.27155623,0.25284883,0.08865501,0.92437273,244352732278695
-7.140419,3.4064965,0.45681572,-1.4358387,-0.55680364,1.0965031,0.26545247,0.2548072,0.07078102,0.9271453,244352752221907
-6.6448965,2.618568,-2.2124996,-1.408808,-0.84467393,1.2356277,0.25815037,0.25996768,0.05252006,0.9289871,244352772142234
-6.5037956,3.1636105,-4.0090256,-1.6029104,-0.8700248,1.3183999,0.25046206,0.26445198,0.032201394,0.9307508,244352792039670
-6.314471,2.6410627,-5.804046,-1.9292651,-0.9405798,1.2586879,0.24416845,0.26861477,0.008704365,0.9317468,244352811990515
-6.190913,1.3997107,-7.36731,-2.4602597,-0.8565858,1.1365148,0.24042787,0.27047887,-0.019361194,0.9320198,244352831994763
-6.040258,-0.23701452,-8.453013,-2.8458683,-0.80924374,1.0636691,0.23817043,0.27051994,-0.051075295,0.9313888,244352851968495
-5.0213203,-3.2764852,-11.017769,-2.629164,-1.0180069,0.8923214,0.23623411,0.27320158,-0.080747835,0.9289963,244352871911708
-3.817704,-4.0508313,-11.146169,-2.0839667,-0.9089675,0.6214027,0.23555884,0.27661178,-0.104031935,0.9258377,244352891832035
-3.6265788,-2.4231257,-11.546713,-1.4280503,-0.6450737,0.72692966,0.23193122,0.2783782,-0.119987085,0.92429245,244352911729472
-3.5552547,-0.63582325,-12.307931,-1.9359847,-0.634689,1.033584,0.22665201,0.2787178,-0.14200138,0.9223779,244352931657428
-2.6202774,-2.0046895,-11.603325,-3.0868547,-0.55741453,1.1146764,0.22389814,0.27514872,-0.17571226,0.9183071,244352951615901
-1.6337433,-4.2612877,-9.405772,-3.7641516,-0.18188512,1.0076222,0.2248368,0.26623768,-0.2143405,0.9124824,244352971566744
-0.9307885,-4.4053855,-5.9755545,-3.7789652,0.17012598,1.1255192,0.22351266,0.2535981,-0.25601128,0.9056425,244352991509956
-0.6781573,-5.0269217,-5.734919,-3.7539196,-0.1470658,1.2673926,0.22031045,0.24293694,-0.29419544,0.89771605,244353011483689
-0.5483465,-5.003459,-5.538611,-4.4348817,-0.7139487,1.3539828,0.2165185,0.23579216,-0.33902404,0.8846382,244353031487937
0.13641214,-5.604427,-4.507966,-5.109735,-1.1178834,1.8497,0.20792164,0.22803587,-0.39118436,0.8670312,244353051461669
0.7898321,-7.524153,-2.9013486,-5.47152,-1.4595097,2.2467623,0.19431801,0.22004949,-0.4465234,0.84524286,244353071404881
0.583518,-8.202917,-1.7771952,-5.1784573,-1.841606,2.3938282,0.1768568,0.21427274,-0.4988086,0.82097447,244353091355727
1.0056539,-9.623526,-3.582219,-3.8681514,-2.6891816,2.6134343,0.14955164,0.21642374,-0.5397344,0.7996761,244353111314199
2.064413,-8.515318,-4.168914,-2.7656925,-3.0847168,2.9119947,0.11467633,0.22173262,-0.57143533,0.78175807,244353131265042
2.1298976,-5.588331,-4.5042305,-2.3458753,-2.9029844,3.3087516,0.07697794,0.22243914,-0.59907216,0.76531553,244353151208255
0.0,0.0,0.0,0.0,0.0,0.0,0.010096623,0.21691528,-0.67680484,0.7034068,244353191094683
