accel_x,accel_y,accel_z,gyro_x,gyro_y,gyro_z,rot_w,rot_x,rot_y,rot_z,timestamp
0.0,0.0,0.0,0.0,0.0,0.0,1.0,0.0,0.0,0.0,244344024502361
0.0,0.0,0.0,0.0,0.0,0.0,1.0,0.0,0.0,0.0,244344702785256
-3.6545458,3.947002,-1.3373752,3.712839,1.5792394,-1.7847955,0.36094993,-0.1818649,0.3042018,-0.8626132,244344792537348
0.0,0.0,0.0,2.307238,1.0514518,-1.7899879,0.3464483,-0.17023246,0.286198,-0.87697506,244344812495821
-5.8902245,-2.2536345,1.3736463,2.3261747,0.9246973,-1.4382823,0.33484343,-0.15894337,0.26711312,-0.88953215,244344832446663
-4.5752454,-0.43021965,-0.15007973,2.8548787,1.0305296,-0.85154617,0.32980043,-0.14086632,0.24379009,-0.9010854,244344852389876
-4.294037,0.9220619,-1.9541678,2.6946793,0.88453287,-0.7119634,0.3251897,-0.12538397,0.22117788,-0.91082984,244344872333091
-3.6803617,1.7095461,-3.7845068,2.068848,0.8552113,-0.472657,0.32160035,-0.111917935,0.2047792,-0.91766727,244344892276304
-2.685885,2.912239,-4.997099,1.2357804,0.93935806,-0.10873401,0.32022914,-0.09943865,0.19675736,-0.9213316,244344912227148
-2.1809468,3.7240963,-5.3438425,0.22052236,1.0294607,0.27550024,0.32116374,-0.08855703,0.19885822,-0.9216653,244344932185621
-2.3577955,3.5147088,-5.0029225,-0.7002043,1.0812315,0.70814556,0.32506987,-0.07937529,0.2100786,-0.9186382,244344952113577
-2.9925828,2.6644626,-3.9292784,-1.1336132,1.0786353,1.2237158,0.33329442,-0.07047802,0.22557823,-0.9127224,244344972011013
-3.5892525,1.5420308,-1.8091035,-0.8179486,0.9795224,1.8000672,0.34715825,-0.060016282,0.23779407,-0.9051703,244344991961857
-4.080446,-1.0784001,-0.55064297,0.30955598,0.72021013,2.2533293,0.3664648,-0.046797626,0.23851721,-0.89812195,244345011966105
-3.2064996,-1.8224635,-0.38510036,0.0,0.0,0.0,1.0,0.0,0.0,0.0,244345031939837
-1.4565965,0.462399,0.4307413,2.4061983,1.5250251,2.2649355,0.4034455,0.0033315534,0.21176131,-0.8901561,244345051883049
-1.5643985,-0.61320686,3.0663424,1.3982705,1.4456125,1.4408784,0.43526107,0.07796447,0.18516946,-0.87759995,244345111720323
-1.0121207,0.13498735,3.8879223,1.4410311,1.4327844,1.396438,0.44338003,0.099331476,0.17771311,-0.8729064,244345131678796
0.26323342,1.1996229,3.5058527,1.2373075,1.2370021,1.5500705,0.45349178,0.11833112,0.1705048,-0.866759,244345151629638
1.7218169,1.6206292,2.1825085,0.74036866,1.0461067,1.5415184,0.4642084,0.13295674,0.16707484,-0.85960406,244345171572851
0.0,0.0,0.0,0.0,0.0,0.0,1.0,0.0,0.0,0.0,244345181544459
2.5561314,1.0941051,1.6693745,0.35140023,0.9434814,1.5554156,0.47554362,0.14481045,0.16635747,-0.85159457,244345191516065
2.2348583,0.2585925,1.8639593,0.16279559,0.7637343,1.5248724,0.48699206,0.15427284,0.16651328,-0.84339315,244345211459278
1.8065071,-0.7484348,1.5835819,0.18173242,0.59437186,1.4373659,0.49780545,0.16230132,0.16561104,-0.8357159,244345231410124
2.3909597,-2.1184852,1.2205172,0.3501785,0.46211955,1.2479976,0.50675154,0.16929133,0.16295096,-0.82945186,244345251368596
2.9346492,-2.151156,0.92590904,0.7324274,0.4896085,1.0186177,0.51274973,0.17307736,0.15789142,-0.82595533,244345271319439
2.6607912,-0.8412145,0.4697132,0.92057395,0.49602258,0.8746063,0.51789105,0.17234407,0.14855167,-0.8246326,244345291262651
2.5099754,-0.16067672,-0.31755352,0.8147415,0.33124167,0.8801041,0.52318233,0.18037224,0.1419117,-0.82073575,244345311213497
2.4472477,1.0065856,-0.6964388,0.56199604,0.22800545,0.98547834,0.5299302,0.18641482,0.13655904,-0.8159505,244345331171969
1.0722353,1.263605,-0.49223518,-0.037415497,-0.007941248,1.1708759,0.5396779,0.18766761,0.13464163,-0.80956787,244345351122812
-0.43120432,-0.92092955,-0.2617092,-0.37216964,-0.31795537,1.3524556,0.55177003,0.18404374,0.13439703,-0.8022564,244345371066025
-1.4789557,-1.5478841,-0.47134876,-0.39813143,-0.2968805,1.3458889,0.5631698,0.18142127,0.13564909,-0.7946857,244345390986352
-2.0144653,-1.8571378,-1.2489977,-0.6122397,-0.39202276,1.2257011,0.5721088,0.17877735,0.14569099,-0.787086,244345410883789
-2.6368408,-3.2341514,-1.533267,-0.95310247,-0.56184334,0.80848014,0.58081603,0.16983671,0.14905658,-0.78204244,244345430811744
-2.881771,-4.6716843,-2.3909044,-1.1348349,-0.57833666,0.13881913,0.5844575,0.15875989,0.15453939,-0.780591,244345450770217
-1.4564605,-4.932883,-1.668097,-1.3300064,-0.44226643,-0.680962,0.5811456,0.14611477,0.1642632,-0.783542,244345470743949
-0.83111787,-5.167561,-0.22824383,-0.77304995,-0.33200526,-0.9957104,0.5745856,0.13710459,0.17011775,-0.7887418,244345490732937
-0.23316407,-4.0152206,0.07116413,-0.09407325,-0.1572978,-1.0111347,0.5667119,0.13418078,0.17093728,-0.7947413,244345510706671
0.4810629,-3.6094222,0.24763966,-0.23472497,-0.25488353,-1.057255,0.55904245,0.12918417,0.17258659,-0.8006228,244345530665143
1.2173855,-3.7880132,0.68400383,-0.6579019,-0.38362336,-1.2533427,0.5504133,0.11981763,0.17766915,-0.80692166,244345550615986
1.8704796,-2.3652904,0.17372227,-0.7293731,-0.4560109,-1.3768903,0.53998625,0.104311556,0.1844876,-0.81455404,244345570559198
2.3745506,-1.522358,-0.5575123,-0.559858,-0.54412824,-1.3469579,0.5303294,0.09301776,0.18754464,-0.8215385,244345590510044
2.4293728,-1.7364776,-1.2153149,-0.2875648,-0.5056437,-1.2082914,0.52159715,0.08498075,0.18819036,-0.82782793,244345610468516
1.8413699,-2.0605733,-1.0986962,-0.051159963,-0.38560867,-0.9839512,0.51414144,0.079099104,0.18761998,-0.83318704,244345630419359
1.0441408,-1.3952646,-0.5263462,0.05757405,-0.20143281,-0.8127562,0.5067932,0.071732916,0.18900223,-0.8380294,244345650362572
0.19317365,-0.7408166,0.36285114,-0.112704635,-0.14950927,-0.73960507,0.5009941,0.0686765,0.18977432,-0.8415903,244345670305787
-0.047348738,0.08053017,1.0507784,-0.28771752,-0.22327125,-0.6565274,0.49612185,0.063994534,0.19170813,-0.8444026,244345690249000
0.26999903,1.0219355,0.85321236,-0.28237244,-0.364992,-0.5224425,0.49272737,0.058497723,0.19221923,-0.84666973,244345710192214
0.52021503,1.0797071,0.23912716,-0.18646662,-0.52656585,-0.30879238,0.49277788,0.053154003,0.17979391,-0.8497169,244345730135427
0.5583966,0.46161342,-0.14475536,-0.14462234,-0.6444628,-0.1441642,0.49295717,0.046671618,0.17772608,-0.8504285,244345750086272
0.46590018,-0.20535326,0.15043068,-0.1863139,-0.65377855,-0.054367006,0.4938209,0.040068593,0.17611316,-0.8505995,244345770044745
0.4328822,-1.0879011,0.654603,-0.258396,-0.65500027,-0.031612277,0.49481255,0.033120543,0.17512959,-0.85052526,244345789995588
0.5118418,-1.7921553,1.2112465,-0.25870144,-0.7002043,-0.008399397,0.49604556,0.025855979,0.17393288,-0.8503045,244345809938800
1.0103631,-1.6280591,0.8370819,-0.22770002,-0.72692966,-0.056963183,0.49686384,0.0183563,0.1722475,-0.85036474,244345829889646
1.2423444,-1.5250571,0.8675165,-0.12018774,-0.7481572,-0.082619525,0.49741125,0.01117561,0.16960995,-0.8506994,244345849848118
0.67282915,-1.527097,0.9103308,0.050701816,-0.7641924,-0.05390886,0.4981989,0.0048559248,0.16524246,-0.85115755,244345869798961
0.47966582,-1.249095,0.55284214,-0.009773844,-0.7996226,-0.00076358154,0.49955037,-0.0019049679,0.1612312,-0.8511466,244345889742173
0.5365861,-1.0284436,-0.21377563,-0.21930063,-0.8219192,0.005955936,0.5004673,-0.013058139,0.16080642,-0.85059,244345909685388
0.9488841,-0.6356721,-1.0277176,-0.31230485,-0.7603745,-0.009468411,0.501524,-0.02130201,0.15983668,-0.84998363,244345929628601
0.99880534,-0.38455343,-1.0062389,-0.2452624,-0.6629415,-0.0580322,0.50199294,-0.028268527,0.15867767,-0.84972084,244345949579446
0.44684044,-0.66693735,-0.34622288,0.014049901,-0.5589417,-0.106901415,0.5019029,-0.03317836,0.15573092,-0.85014147,244345969537919
0.21338487,-0.44420242,-0.08839798,0.2396119,-0.42485678,-0.09911288,0.50175923,-0.035555985,0.15136848,-0.8509179,244345989488761
0.57851845,-0.111548185,-0.29559326,0.18753563,-0.3370449,-0.069485925,0.50174856,-0.037437566,0.1480003,-0.8514357,244346009431974
0.78243464,-0.4553361,-0.17849255,0.030543262,-0.29626966,-0.050549097,0.5017136,-0.04044178,0.14637625,-0.8515997,244346029382819
0.8897213,-0.7425475,-0.0019445419,0.0346666,-0.21303925,-0.042455133,0.50153273,-0.043065503,0.14521778,-0.8517758,244346049341292
0.8406544,-0.8112724,0.20314693,0.14844026,-0.12690726,-0.03436117,0.50148636,-0.043473747,0.14327787,-0.85211086,244346069292135
0.77312213,-0.6348746,0.38490582,0.160963,-0.07788532,-0.009773844,0.50155926,-0.04325893,0.14147875,-0.8523795,244346089235347
0.6870643,-0.6434722,0.5671015,0.092240654,-0.085673854,0.040927973,0.5020779,-0.04349272,0.14035036,-0.8522488,244346109178563
0.758348,-0.7868149,0.47106743,0.069027774,-0.082619525,0.10323623,0.503142,-0.043740574,0.13941813,-0.85176134,244346129121775
0.8004075,-1.0240376,0.2084856,0.08246681,-0.05375614,0.14645495,0.50450855,-0.043781817,0.13856071,-0.85109067,244346149072620
0.67026603,-1.3121884,0.23593807,0.08170322,0.0012217305,0.15989397,0.505901,-0.043295108,0.13806732,-0.85036886,244346169031092
0.45083976,-1.3943131,0.34970856,0.040927973,0.05100725,0.12217305,0.5068445,-0.042542834,0.13812087,-0.8498362,244346188981935
0.36464888,-1.1102021,0.34142876,0.015577064,0.0870483,0.08032878,0.50739336,-0.04159455,0.13848242,-0.84949666,244346208925148
0.29104415,-0.6206641,0.7039747,0.04428773,0.073303826,0.0627664,0.50779384,-0.04067572,0.13858022,-0.84928584,244346228875993
-0.014770508,-0.83051395,1.4747839,0.19394971,0.00290161,0.071013086,0.50848246,-0.039573375,0.13694602,-0.849191,244346248834466
-0.07338917,-0.8354559,1.4309216,0.32085696,-0.06383542,0.065209866,0.50924754,-0.03839142,0.13375904,-0.8492948,244346268785308
0.41759163,-0.56335926,0.5600376,0.2657264,-0.12232576,0.06841691,0.51010543,-0.037967607,0.1308171,-0.84925723,244346288728521
0.92133254,-0.73648787,0.020086288,0.07803804,-0.16157386,0.03863723,0.51054096,-0.04007619,0.12948216,-0.8491032,244346308671736
0.98573923,-0.49942112,-0.19033337,-0.08552113,-0.17562376,0.028863383,0.5092887,-0.054812614,0.12859651,-0.84916633,244346328614949
1.3409986,-0.27635074,-0.674284,-0.05681047,-0.14385876,0.082619525,0.5100064,-0.05718737,0.12826678,-0.8486287,244346348550535
1.6581002,-0.13009596,-0.72397804,0.12797627,-0.09285152,0.16279559,0.5114841,-0.05788156,0.12645938,-0.8479634,244346368478489
1.5627313,-0.9629054,0.71609306,0.28802297,-0.025809057,0.19318613,0.5134191,-0.056199055,0.123808905,-0.847298,244346388429333
1.0122259,-2.2588868,2.738186,0.17562376,-0.07467828,0.063988134,0.51411736,-0.05583258,0.12199889,-0.84716135,244346408403063
0.8979749,-2.782756,3.4855566,-0.030695979,-0.3022256,0.12644911,0.5153664,-0.058476273,0.12073779,-0.8464044,244346428361537
1.6469305,-2.2908905,2.4205647,-0.3231477,-0.5890268,0.1910481,0.51768506,-0.06533999,0.12074992,-0.8444835,244346448304749
0.0,0.0,0.0,-0.2761111,-0.6760751,0.226631,0.5201537,-0.0725142,0.11968585,-0.84253025,244346468255595
2.082802,-2.7024636,0.65039635,-0.49113566,-0.65469486,0.1815797,1.0,0.0,0.0,0.0,244346488214068
