timestamp,accel_x,accel_y,accel_z,gyro_x,gyro_y,gyro_z,rot_w,rot_x,rot_y,rot_z
3534820000000,0.0,0.0,0.0,0.0,0.0,0.0,1.0,0.0,0.0,0.0
3535280000000,0.0,0.0,0.0,0.0,0.0,0.0,1.0,0.0,0.0,0.0
3535620000000,-1.9939675,5.5325933,-2.2787943,0.0,0.0,0.0,1.0,0.0,0.0,0.0
3535640000000,-2.224256,4.805735,-2.1219137,0.0,0.0,0.0,0.3146851,0.23775703,0.60806894,-0.6889827
3535660000000,-2.4230342,3.9984574,-1.8196044,-0.06093381,0.91156363,2.92467,0.33461052,0.2690773,0.6040579,-0.6713772
3535680000000,-2.804676,3.37137,-1.6435617,0.04642576,1.0769554,3.2473598,0.34921995,0.2945738,0.59866965,-0.6579258
3535700000000,-3.2350006,2.5657973,-1.4625183,0.13271047,1.2206615,3.504992,0.36413294,0.32270792,0.59174246,-0.6427346
3535720000000,-3.8016186,1.3983364,-0.9180987,0.37216964,1.270447,3.696651,0.37895298,0.35300303,0.5827931,-0.6262075
3535740000000,-4.0976048,0.023721695,-0.36092493,0.8032878,1.2382239,3.769802,0.39170492,0.38596028,0.569289,-0.6111562
3535760000000,-3.867216,-1.0168171,-0.09359455,1.2342533,1.208597,3.6911533,0.4032478,0.41854063,0.5526183,-0.5973507
3535780000000,-3.4039412,-1.5637956,-0.13356061,1.4818064,1.2417363,3.4807103,0.40984938,0.45276693,0.53183705,-0.58666426
3535800000000,-3.1155272,-2.050129,-0.12223549,1.5525141,1.2962561,3.1667254,0.41518962,0.483755,0.51263326,-0.5751572
3535820000000,-2.8204489,-2.6474645,0.38266513,1.5317446,1.3133603,2.7505734,0.41516063,0.51465917,0.49203905,-0.5662731
3535840000000,-2.350316,-2.9711711,1.038521,1.3863586,1.3263412,2.2774584,0.41493914,0.54017955,0.47610414,-0.5561981
3535860000000,-1.9489536,-3.1249337,1.8235774,1.0943651,1.3101532,1.7670804,0.41051835,0.5639713,0.46103635,-0.548504
3535880000000,-1.7015257,-3.2394342,2.4577556,0.70280045,1.2217305,1.2982414,0.40763068,0.5812404,0.45293334,-0.5393034
3535900000000,-1.3645697,-3.364105,3.035561,0.24297164,1.0587822,0.89873546,0.40272692,0.60382307,0.44569486,-0.5239895
3535920000000,-0.35147572,-3.9991763,3.7073774,-0.5083926,0.6042985,0.3481932,0.4022786,0.60949755,0.4453315,-0.51803905
3535940000000,0.26204777,-4.311345,3.8306355,-0.63239825,0.3801109,0.17333302,0.4050059,0.6101589,0.44904605,-0.5118926
3535960000000,0.81200314,-4.3409677,3.835546,-0.64843345,0.17256944,0.02321288,0.40479892,0.6061041,0.45191637,-0.5143416
3535980000000,1.092269,-4.2054405,3.529303,-0.6178902,-0.025045475,-0.11927144,0.4034334,0.5910685,0.45992076,-0.52569234
3536000000000,1.0772886,-4.0775084,3.11122,-0.59421915,-0.22006421,-0.27458394,0.40053368,0.57954717,0.46429953,-0.53677166
3536020000000,0.83679676,-3.9486012,2.717241,-0.56596667,-0.41615194,-0.44715336,0.40193975,0.57047427,0.46944,-0.5409526
3536040000000,0.48510742,-3.803051,2.3215044,-0.5535966,-0.59223384,-0.65836,0.40168664,0.5644937,0.47050482,-0.5464612
3536060000000,0.15591526,-3.6276953,1.8636956,-0.6534731,-0.7507534,-0.93477654,0.40371957,0.55446464,0.47546804,-0.5509171
3536080000000,-0.20100689,-3.4275496,1.3184255,-0.81214535,-0.8744536,-1.2618948,0.40334097,0.543549,0.47963998,-0.55840504
3536100000000,-0.44937325,-3.123099,0.8236981,-0.9221011,-0.9610438,-1.5911512,0.40441775,0.52771306,0.48862895,-0.564984
3536120000000,-0.8324423,-2.8475199,0.49663794,-0.9755518,-1.0083858,-1.9384282,0.40206352,0.5112761,0.49698898,-0.5744074
3536140000000,-1.2977524,-2.7861447,0.34704223,-0.9399689,-1.006095,-2.2850943,0.39968064,0.49074116,0.5092596,-0.58316654
3536160000000,-1.9997091,-2.8581097,0.1668374,-0.8556695,-0.95646226,-2.6316075,0.39333737,0.46961617,0.52139,-0.59405285
3536180000000,-3.0469618,-2.5246732,-0.21073157,-0.80970186,-0.8689558,-2.965598,0.38490787,0.44612238,0.53562486,-0.6049189
3536200000000,-4.216545,-1.4148297,-0.7559969,-0.79641557,-0.8266534,-3.2377386,0.37286174,0.4218437,0.5501984,-0.6166878
3536220000000,-4.7963552,-0.18742657,-1.1379068,-0.7611381,-0.8078693,-3.461468,0.35969508,0.39519382,0.5658037,-0.62793916
3536240000000,-4.960622,0.73457575,-1.2897307,-0.6400341,-0.7528914,-3.6236527,0.34436184,0.36735445,0.5811367,-0.6393324
3536260000000,-5.05947,1.4245405,-1.4111648,-0.4195117,-0.698219,-3.68367,0.32681456,0.33943623,0.595123,-0.6510023
3536280000000,-4.9550705,2.1847854,-1.5999355,-0.14584407,-0.68035114,-3.6432004,0.30773932,0.312127,0.60670525,-0.6631607
3536300000000,-4.653007,2.9962564,-1.7296373,0.16905695,-0.6479753,-3.5167513,0.28790691,0.2860278,0.615228,-0.67586404
3536320000000,-4.362926,3.7818856,-1.8842695,0.5215262,-0.59406644,-3.3072245,0.26853403,0.26111513,0.6207832,-0.688721
3536340000000,-4.1364923,4.5475826,-2.0274153,0.86361074,-0.54061574,-3.029586,0.24842589,0.23964673,0.6221852,-0.7026661
3536360000000,-3.5754733,5.0240655,-2.0818572,1.1360567,-0.48609602,-2.6988027,0.24351014,0.23672135,0.619446,-0.7077799
3536380000000,-3.261146,5.6216707,-2.2809246,1.3109168,-0.4196644,-2.3302982,0.22851169,0.22516754,0.61479086,-0.7204959
3536400000000,-2.9511495,6.158898,-2.505322,1.3735305,-0.32360587,-1.9300288,0.21515699,0.21056323,0.60949105,-0.7334108
3536420000000,-2.626913,6.540673,-2.691297,1.3344351,-0.19486602,-1.50731,0.20152727,0.20148267,0.60229874,-0.7456727
3536440000000,-2.4219866,6.7505045,-2.7867336,1.2179126,-0.058337633,-1.0682507,0.19302867,0.19362746,0.5957682,-0.75518775
3536460000000,-2.1868353,6.881764,-2.8560991,1.0412198,0.07620544,-0.6160576,0.18473838,0.19131976,0.5887924,-0.7632772
3536480000000,-1.927701,6.9248304,-2.8595903,0.8135198,0.21105394,-0.16065755,0.18201554,0.19032563,0.583447,-0.76826835
3536500000000,-1.6888552,6.8775897,-2.8586025,0.56291234,0.36270124,0.29061913,0.1799254,0.19457756,0.57862115,-0.7713391
3536520000000,-1.6220798,6.6793923,-2.8317254,0.33964106,0.5148067,0.72219545,0.18326205,0.20021912,0.5758391,-0.7711918
3536540000000,-1.7496653,6.395787,-2.7144063,0.19730948,0.64461553,1.14018,0.18688397,0.21096946,0.5731223,-0.76947844
3536560000000,-1.959454,6.048966,-2.4395406,0.13652839,0.729984,1.5508342,0.19442084,0.22376513,0.570711,-0.76577973
3536580000000,-2.1571827,5.747157,-2.258382,0.11224649,0.7985536,1.9428569,0.20345251,0.24021752,0.5671907,-0.7610501
3536600000000,-2.344314,5.4361935,-2.229673,0.077121735,0.840856,2.3208299,0.21509178,0.25906467,0.56279016,-0.75490946
3536620000000,-2.4288416,4.9428167,-1.9818512,0.04642576,0.86834496,2.6714664,0.22996703,0.28106475,0.55721813,-0.74674356
3536640000000,-2.6377697,3.9833868,-1.334028,0.1226312,0.8933904,2.986062,0.25365892,0.31475076,0.5472833,-0.7328508
3536660000000,-3.0935335,3.3423462,-1.2813482,0.19624045,0.91797775,3.2458324,0.27107382,0.3389638,0.5380384,-0.72259074
3536680000000,-3.389329,3.1268885,-1.6959883,0.031001411,0.9828822,3.4432948,0.2896524,0.36418036,0.5276393,-0.7106834
3536700000000,-3.8648214,2.670534,-1.9502262,-0.33536503,1.0783299,3.600287,0.30967927,0.3895251,0.51848227,-0.69537413
3536720000000,-4.5333157,1.6045227,-1.4999534,-0.6107125,1.1007792,3.7059667,0.33122233,0.41438264,0.5109096,-0.67642456
3536740000000,-4.7564564,0.39344764,-0.43194473,-0.8593347,1.0439687,3.6845865,0.35369742,0.437797,0.5037254,-0.6553569
3536760000000,-4.478632,-0.49092674,0.15122616,-0.88331115,0.9955576,3.6050212,0.37545425,0.45992887,0.4964454,-0.6332785
3536780000000,-4.223933,-1.9584413,0.8354585,-0.62873304,0.89659745,3.429703,0.39642745,0.47987396,0.48869446,-0.6113461
3536800000000,-3.598424,-3.165093,1.1934402,-0.022449298,0.8339838,3.2018502,0.41286096,0.5004148,0.47709677,-0.5928825
3536820000000,-2.8308954,-3.9450774,1.2434853,0.5885687,0.851088,2.8787024,0.42496547,0.52088153,0.4631266,-0.57758164
3536840000000,-2.3224955,-4.328944,1.3479159,1.042747,0.84528476,2.5082128,0.4295333,0.5433519,0.44554573,-0.567238
3536860000000,-1.6910934,-4.5596967,1.4097958,1.2872458,0.80939645,2.1036673,0.43190148,0.56315464,0.42968333,-0.55829227
3536880000000,-0.9983511,-4.5517535,1.5609473,1.3066407,0.762818,1.6763669,0.4290273,0.5826966,0.41269758,-0.5532457
3536900000000,-0.5171299,-4.386059,1.7429168,1.0635164,0.68508536,1.2623531,0.42667842,0.59759855,0.40073386,-0.5479361
3536920000000,-0.25855827,-4.2507305,2.0092847,0.63499445,0.5488624,0.8926268,0.4228751,0.6098796,0.39047542,-0.54475003
3536940000000,0.00061130524,-4.3610153,2.3143613,0.17760907,0.36560285,0.57360244,0.42231035,0.61601406,0.38646087,-0.54113656
3536960000000,0.4092865,-4.3239255,2.516448,-0.22922719,0.18707748,0.29993483,0.41967803,0.6155854,0.38589033,-0.5440714
3536980000000,0.7402992,-4.0135226,2.3461428,-0.57757306,0.012370021,0.061850104,0.41473168,0.59875906,0.39716458,-0.55834174
3537000000000,0.9357271,-3.338498,1.8903518,-0.8384125,-0.15882497,-0.15500705,0.40188512,0.56803143,0.41448787,-0.58653945
3537020000000,0.96595764,-2.7391438,1.4047487,-0.9615019,-0.30283645,-0.36209038,0.39164332,0.53500926,0.4344727,-0.6096015
3537040000000,0.8057766,-2.632348,1.1336249,-0.9477574,-0.42164972,-0.5696318,0.3876675,0.52063626,0.44292524,-0.61844087
3537060000000,0.5251951,-2.4715757,0.8172428,-0.86406887,-0.52290064,-0.79305583,0.38877425,0.50888246,0.45160332,-0.6212469
3537080000000,0.23129082,-2.2564437,0.5368154,-0.7626653,-0.59941155,-1.0282389,0.38640627,0.49957144,0.456443,-0.6267203
3537100000000,-0.15619278,-1.9889841,0.28549677,-0.67179906,-0.6411031,-1.2808317,0.38537332,0.48745218,0.46427998,-0.6311275
3537120000000,-0.755393,-1.6992226,0.07614899,-0.63453627,-0.6768387,-1.5482379,0.379508,0.47637066,0.46976906,-0.6390318
3537140000000,-1.5091686,-1.3945835,-0.115849555,-0.63285637,-0.72189003,-1.8186985,0.37484798,0.46145305,0.47916347,-0.64571863
3537160000000,-2.2652636,-1.1964877,-0.3891254,-0.65286225,-0.7706065,-2.1067214,0.36582404,0.44676143,0.48701245,-0.65528303
3537180000000,-2.9865103,-0.7065928,-0.7957873,-0.7244862,-0.79534656,-2.4326181,0.35764882,0.42790347,0.4986063,-0.66360974
3537200000000,-3.6154823,-0.092264175,-1.2677726,-0.872621,-0.7852673,-2.8177686,0.34489793,0.4084383,0.5100943,-0.67381555
3537220000000,-4.315838,0.53231907,-1.4842329,-1.0157162,-0.7264715,-3.2146783,0.33207548,0.3843472,0.5260985,-0.68207294
3537240000000,-5.0906734,1.0606618,-1.3251742,-1.0845913,-0.66538495,-3.605174,0.31421566,0.35950878,0.5424904,-0.6911773
3537260000000,-5.816888,1.6338305,-1.2584445,-1.0877982,-0.5740606,-3.932445,0.29503223,0.33090082,0.5613878,-0.6987878
3537280000000,-6.305565,2.601462,-1.3087213,-0.98731095,-0.49312097,-4.1140246,0.27206126,0.3019168,0.57957643,-0.7063429
3537300000000,-6.3760376,3.4103622,-1.3918835,-0.78969604,-0.4025602,-4.1567855,0.24787077,0.27210122,0.59667116,-0.71309507
3537320000000,-6.236954,3.945599,-1.3670862,-0.40240747,-0.28313604,-4.0204096,0.22221285,0.24362703,0.61078787,-0.71986496
3537340000000,-6.03685,4.403815,-1.3038596,0.113162786,-0.18325958,-3.7441459,0.19578946,0.21794203,0.6201901,-0.72768945
3537360000000,-5.830067,5.0309734,-1.3251343,0.5879578,-0.14355333,-3.3593006,0.17003186,0.195656,0.624292,-0.73693115
3537380000000,-5.362843,5.5909123,-1.341624,0.9618073,-0.14126259,-2.9153545,0.15092634,0.18227935,0.62283677,-0.74570096
3537400000000,-4.87468,6.170968,-1.5348969,1.2333369,-0.1459968,-2.4449883,0.13157725,0.16833343,0.61843044,-0.75623757
3537420000000,-4.3528843,6.768531,-1.819294,1.3741413,-0.13408493,-1.9642372,0.11392134,0.1557144,0.61151624,-0.76734793
3537440000000,-3.8745222,7.254261,-2.1085851,1.35551,-0.07345655,-1.4845552,0.10053211,0.14555645,0.60339946,-0.77757037
3537460000000,-3.6483326,7.550098,-2.3307302,1.2195925,0.026267206,-1.0219775,0.08947801,0.13954191,0.59495103,-0.7864827
3537480000000,-3.634642,7.6471686,-2.5000277,1.0302242,0.106901415,-0.56505036,0.08231554,0.13631028,0.58740747,-0.793471
3537500000000,-3.5225775,7.731349,-2.6174622,0.81061816,0.17287487,-0.10522154,0.07798163,0.13662997,0.5806652,-0.79879856
3537520000000,-3.313701,7.6786475,-2.7147148,0.5674938,0.26832256,0.34788775,0.07912727,0.13858376,0.5757138,-0.8019271
3537540000000,-3.3118846,7.508931,-2.7278032,0.34300083,0.3715588,0.796721,0.08160168,0.14523411,0.571638,-0.80341667
3537580000000,0.0,0.0,0.0,0.03970624,0.48563787,1.6991217,1.0,0.0,0.0,0.0
