timestamp,accel_x,accel_y,accel_z,gyro_x,gyro_y,gyro_z,rot_w,rot_x,rot_y,rot_z
3383580000000,0.0,0.0,0.0,0.0,0.0,0.0,1.0,0.0,0.0,0.0
3383720000000,0.0,0.0,0.0,-0.4353942,0.0870483,0.22968534,0.15678614,0.2640223,0.11191559,-0.94508475
3383740000000,-0.23613214,0.43067694,0.4193716,-0.50991976,0.03359759,0.19807306,0.16005196,0.26394698,0.11593781,-0.94407296
3383760000000,-0.089642525,0.5101427,0.1485796,-0.52748215,0.052381694,0.17486018,0.16624314,0.2632367,0.12141732,-0.9425113
3383780000000,0.029957294,0.40757072,0.23429775,-0.44318274,0.05299256,0.17272215,0.16909193,0.26312456,0.12587772,-0.94145006
3383800000000,-0.016286373,-0.026461124,0.18269634,-0.2133447,0.07345655,0.18020524,0.17457364,0.26291206,0.12949388,-0.9400174
3383820000000,-0.12716532,-0.31269276,-0.035578728,-0.08460484,0.11652254,0.17027868,0.17639254,0.2638893,0.13015844,-0.9393119
3383840000000,-0.16249895,-0.071033,-0.06655216,-0.16768251,0.11560625,0.14340061,0.180977,0.26474187,0.13169205,-0.93798524
3383860000000,-0.245965,0.037957072,-0.027282715,-0.3203988,0.061850104,0.11911872,0.18273818,0.2652991,0.13390642,-0.9371725
3383880000000,-0.13957691,-0.041623592,-0.20511961,-0.39171734,0.063224554,0.09208794,0.1876571,0.26476768,0.13816279,-0.93573177
3383900000000,0.112632275,0.0065666437,-0.5413785,-0.4025602,0.12293663,0.069791354,0.18930541,0.26488984,0.14196116,-0.9347963
3383920000000,0.22866726,0.15937138,-0.37955475,-0.35445455,0.19700404,0.118507855,0.19370201,0.26543915,0.1465013,-0.9330375
3383940000000,-0.1813674,0.20821881,-0.038018703,-0.3735441,0.18020524,0.18463401,0.19580019,0.26698163,0.14967108,-0.9316554
3383960000000,-0.3844943,0.040879846,0.1569953,-0.4298964,0.12507465,0.19379699,0.20119543,0.26743498,0.15396386,-0.92967415
3383980000000,-0.6397443,-0.12270594,-0.08744478,-0.5242751,0.050549097,0.1423316,0.20399037,0.26761687,0.15806144,-0.9283242
3384000000000,-1.0039678,-0.19548821,-0.42435455,-0.623388,-0.03481932,0.061086524,0.20904295,0.2664006,0.16410677,-0.9264992
3384020000000,-1.1293116,-0.34024358,-0.8611498,-0.5902485,-0.089491755,-0.03756821,0.21082051,0.27093607,0.17293645,-0.9231692
3384040000000,-1.1599779,-0.1521461,-1.1910524,-0.5007568,-0.14889841,-0.18677205,0.2141087,0.28332087,0.18473816,-0.9163834
3384060000000,-1.4666653,0.63880277,-2.1884656,-0.5682574,-0.27076602,-0.3549127,0.21342972,0.28086346,0.18956089,-0.9163134
3384080000000,-2.1926441,0.55564284,-2.982696,-0.96593064,-0.47418416,-0.6197228,0.21479073,0.27811843,0.1983263,-0.9149764
3384100000000,-2.941289,-0.52292633,-3.4610207,-1.352761,-0.5290093,-0.9210321,0.21203268,0.27345628,0.2124459,-0.9138547
3384120000000,-2.9773154,-0.48905945,-3.9397,-1.632232,-0.31429017,-1.1345295,0.21012399,0.27065778,0.23236756,-0.9102734
3384140000000,-2.686678,0.29944372,-4.3172145,-1.9704986,-0.10125092,-1.2710578,0.2052482,0.27625236,0.2569837,-0.9030599
3384160000000,-2.6543732,-0.3345797,-4.111726,-2.129171,0.17302758,-1.2942708,0.20231329,0.27673048,0.285085,-0.89510673
3384180000000,-1.7386842,-0.33779383,-3.499861,-2.111761,0.6385069,-1.2657127,0.19542505,0.28932568,0.3189403,-0.88112247
3384200000000,-1.3484869,0.07148409,-2.8918848,-2.059074,1.0514518,-1.1360567,0.19066118,0.29152083,0.34493136,-0.87159985
3384220000000,-0.9048166,0.8464265,-2.184678,-2.0271564,1.4698945,-0.892016,0.18322884,0.29563135,0.3679516,-0.86234623
3384240000000,-0.7755151,1.4141583,-1.006228,-2.0118847,1.6264287,-0.5500842,0.17815754,0.30306157,0.39053005,-0.8508231
3384260000000,-0.40651655,1.0467196,-0.02690792,-2.012801,1.7330247,-0.08384126,0.17525761,0.31264618,0.41124034,-0.83810407
3384280000000,0.53077793,0.62498045,0.72375655,-1.9320141,1.9262109,0.37064248,0.17538565,0.32511765,0.43017063,-0.82370603
3384300000000,1.5193992,-0.10930824,1.0642529,-2.0253236,2.213623,0.7134906,0.17736176,0.34044638,0.44741473,-0.8077495
3384320000000,1.5060349,-0.76399326,2.1934779,-2.1606305,2.4614816,1.0015136,0.18021657,0.35770974,0.4649537,-0.78954667
3384340000000,0.94178724,-0.7962837,3.9355314,-2.1751385,2.5352435,1.342529,0.18545817,0.37911734,0.48235047,-0.76760244
3384360000000,0.6604533,-0.3586836,5.3112073,-2.0401373,2.2591324,1.6913332,0.19337274,0.40122953,0.4968515,-0.74482244
3384380000000,0.8778186,-1.150444,5.4765997,-2.0263927,1.8832976,1.920255,0.20489436,0.42139032,0.50800407,-0.72275895
3384400000000,1.0086255,-2.541294,5.1500807,-1.9851593,1.6106989,2.1169536,0.21922183,0.43957224,0.51699954,-0.7010203
3384420000000,0.9781656,-3.5227652,5.8274293,-2.0576997,1.3797919,2.2110267,0.23554784,0.45664227,0.5243372,-0.6790182
3384440000000,0.8746872,-3.2068973,7.65293,-2.1786509,1.0152581,2.2406538,0.25388497,0.47118384,0.53085274,-0.6570568
3384460000000,1.3327932,-2.6743908,7.386294,-2.6962066,0.66737026,2.175444,0.27517253,0.4819638,0.53749764,-0.6348915
3384480000000,1.322834,-2.7160397,5.55847,-3.642284,0.2780964,1.9961549,0.299944,0.48781598,0.5476864,-0.6100072
3384500000000,0.4968891,-4.261368,4.08488,-4.416556,-0.116217114,1.7996091,0.3310223,0.48532712,0.56328595,-0.5810257
3384520000000,0.07879448,-5.8600626,3.2383046,-4.6670103,-0.33001995,1.6430748,0.36308527,0.47856912,0.5794392,-0.5508094
3384540000000,0.5250492,-6.222545,2.9501379,-4.5501823,-0.4549419,1.4424056,0.39577806,0.4677029,0.5955137,-0.5195934
3384560000000,1.2910614,-6.0042505,2.6989033,-4.15312,-0.5305365,1.1488848,0.42405415,0.45653722,0.608432,-0.49149
3384580000000,1.7155209,-6.0815477,2.8362317,-3.316082,-0.49754974,0.8703303,0.44895247,0.44335696,0.6198425,-0.46655282
3384600000000,1.5189714,-6.1751723,3.0286202,-2.0567832,-0.4269948,0.72341716,0.46544224,0.43552014,0.62551445,-0.44990835
3384620000000,1.2555523,-6.153321,2.8438005,-0.74021596,-0.408058,0.643852,0.47648022,0.43174502,0.62649804,-0.44052598
3384640000000,1.373991,-6.0148993,2.4715548,0.4344779,-0.38591412,0.56046885,0.4798468,0.43583447,0.62067556,-0.44108638
3384660000000,1.4745817,-5.875538,2.2239635,1.4986051,-0.29565877,0.48563787,0.47951594,0.44241259,0.61208254,-0.4468675
3384680000000,1.261344,-5.541202,2.1989744,2.4210117,-0.20280726,0.39828414,0.47170442,0.45591545,0.59816736,-0.46025196
3384700000000,0.7105169,-4.854801,1.9772666,3.1180089,-0.18952094,0.3129157,0.4609875,0.47038633,0.58238107,-0.47650763
3384720000000,0.2913189,-3.9244406,1.5798228,3.4593298,-0.2771801,0.24098633,0.44510224,0.48832268,0.5618992,-0.497689
3384740000000,0.30548763,-2.7294588,1.0506686,3.3327281,-0.36896262,0.12599096,0.42893913,0.5006674,0.5428555,-0.5202416
3384760000000,0.37849998,-1.3276676,0.5113461,2.7316368,-0.40759984,-0.01038471,0.40986544,0.5088067,0.52573043,-0.5447326
3384780000000,0.30653286,0.26127434,-0.10928625,1.777007,-0.42302418,-0.0720821,0.40012243,0.5153077,0.5119409,-0.5588171
3384800000000,0.2331543,1.6362813,-0.75747,0.5366451,-0.4428773,-0.1020145,0.39603153,0.5212324,0.5019492,-0.56526357
3384820000000,0.22834587,2.252118,-1.1664634,-0.76067996,-0.42012256,-0.050701816,0.40505615,0.5287928,0.4980693,-0.5551887
3384840000000,0.26263428,2.0801802,-1.37959,-1.8990273,-0.3817908,0.07147124,0.41997603,0.5359436,0.5001022,-0.5350537
3384860000000,0.25522423,1.3624275,-1.3516141,-2.7824912,-0.31230485,0.14340061,0.43644154,0.5351543,0.5101527,-0.5127114
3384880000000,0.20172024,0.43116388,-1.0435494,-3.1676416,-0.23243423,0.2406809,0.45445397,0.5225504,0.5241947,-0.4956135
3384900000000,0.25687218,-0.64952004,-0.24882591,-2.9068022,-0.13637567,0.42455134,0.47330606,0.5087613,0.5369887,-0.47831628
3384920000000,0.47497845,-1.5639031,0.69133556,-2.1152737,0.044898596,0.61544675,0.48781776,0.4990298,0.54582614,-0.46376395
3384940000000,0.57093906,-1.6945606,1.3852744,-1.0517572,0.25488353,0.8145888,0.49787283,0.49543604,0.5501903,-0.4516152
3384960000000,0.5518513,-1.3809226,1.6590272,-0.11438452,0.45860708,0.9868528,0.5010891,0.5007791,0.5483917,-0.4442933
3384980000000,0.4318676,-1.3350503,1.6235963,0.44073927,0.63499445,1.0641272,0.50131476,0.5097159,0.54460734,-0.4384929
3385000000000,0.19491863,-1.9062533,1.5428699,0.64965516,0.7841983,1.0708468,0.49738756,0.5187212,0.5394837,-0.4387382
3385020000000,-0.27061367,-2.70974,1.7742608,0.64644814,0.87964594,1.0366384,0.49356088,0.5300071,0.5355513,-0.4343673
3385040000000,-0.6977606,-3.3638215,2.1359367,0.52564955,0.89812464,0.9830349,0.48858702,0.54357904,0.5306826,-0.42916274
3385060000000,-0.93806076,-3.7334538,2.553579,0.2744312,0.84757555,0.91767234,0.48567694,0.55431753,0.52802575,-0.42194656
3385080000000,-0.9490986,-4.036133,3.332519,-0.1348485,0.7113526,0.8126035,0.4832479,0.5641935,0.5250166,-0.4153491
3385100000000,-0.7923784,-4.3521247,4.0993633,-0.5358815,0.50854534,0.7078401,0.48530215,0.56871396,0.52527934,-0.40635923
3385120000000,-0.448987,-4.7969723,4.1209693,-0.860251,0.31673363,0.59727347,0.4885091,0.571849,0.5245584,-0.3989815
3385140000000,-0.05465603,-5.1133347,4.0824485,-1.1311697,0.18341228,0.45982882,0.49519217,0.56946933,0.52699065,-0.39085835
3385160000000,0.16623783,-5.6603136,4.063937,-1.2541064,0.07742717,0.33337972,0.501768,0.566064,0.5290044,-0.3846491
3385180000000,0.4258566,-6.5259,4.09392,-1.0998629,-0.014049901,0.17913623,0.50942945,0.56061053,0.532593,-0.37754765
3385200000000,0.587265,-7.148325,4.252504,-0.72784597,-0.09743301,-0.009010263,0.5138775,0.5575594,0.53371155,-0.37444553
3385220000000,0.71856403,-7.048195,4.283976,-0.3549127,-0.18341228,-0.20861048,0.51688874,0.55330753,0.53566456,-0.37381852
3385240000000,0.66536427,-6.5344205,3.8322256,-0.18142697,-0.24098633,-0.3979787,0.51636964,0.5498231,0.5359337,-0.37925193
3385260000000,0.38899422,-6.227418,3.4050589,-0.24007004,-0.29856038,-0.5917757,0.5166324,0.54440635,0.53825384,-0.38340017
3385280000000,0.21999931,-6.251046,3.250379,-0.29352075,-0.35124752,-0.75502944,0.516044,0.5393151,0.5399338,-0.3889851
3385300000000,0.23492146,-6.3642554,3.0885463,-0.15195273,-0.35903606,-0.9094256,0.5160759,0.5319831,0.54356205,-0.3939542
3385320000000,0.047574997,-6.1319346,3.010175,0.1001819,-0.36774087,-1.0751228,0.5131046,0.52627605,0.54586655,-0.4022274
3385340000000,-0.2313633,-5.557517,2.8723617,0.2275473,-0.42470407,-1.233795,0.509276,0.51941764,0.54908127,-0.4115255
3385360000000,-0.43681908,-4.9192553,2.859617,0.05207626,-0.519999,-1.4379768,0.50414646,0.51239425,0.55151755,-0.42322204
3385380000000,-0.5864649,-4.4008336,2.1268005,-0.20754147,-0.54046303,-1.5674802,0.5010668,0.5011036,0.55686015,-0.43328306
3385400000000,-0.87143517,-4.246601,1.50244,-0.33536503,-0.50579643,-1.6824756,0.49845898,0.48795164,0.5637439,-0.4423063
3385420000000,-1.2530403,-4.235756,1.1598264,-0.22113322,-0.44929138,-1.7418822,0.4949222,0.4745153,0.57106125,-0.45141602
3385440000000,-1.552104,-3.9507713,0.92444986,-0.0013744468,-0.39370266,-1.8107573,0.48969597,0.46179295,0.57785827,-0.46154633
3385460000000,-1.7922316,-3.3486867,0.80525583,0.22739458,-0.33261612,-1.8041905,0.48260686,0.45019418,0.58381283,-0.47284076
3385480000000,-1.8591757,-2.660871,0.8686431,0.37232238,-0.3474296,-1.7815884,0.47443303,0.43973872,0.58864033,-0.48481518
3385500000000,-1.4411888,-1.9009502,0.7165406,0.40546182,-0.3904956,-1.7427986,0.4662026,0.4294775,0.5924802,-0.49716344
3385520000000,-0.6379452,-1.154887,0.5503851,0.321926,-0.38683042,-1.7243198,0.45830762,0.41903865,0.59602857,-0.5090291
3385540000000,0.35594654,-0.56249714,0.51349735,0.21044308,-0.37812558,-1.7266107,0.45067042,0.40790832,0.60009086,-0.5199981
3385560000000,1.4799762,-0.1662376,0.57535654,0.1863139,-0.31627548,-1.7540996,1.0,0.0,0.0,0.0
3385580000000,0.0,0.0,0.0,0.32284227,-0.13057245,-1.7876972,1.0,0.0,0.0,0.0
