timestamp,accel_x,accel_y,accel_z,gyro_x,gyro_y,gyro_z,rot_w,rot_x,rot_y,rot_z
264423200000000,0.0,0.0,0.0,0.0,0.0,0.0,1.0,0.0,0.0,0.0
264423340000000,1.670497,3.131837,-1.835638,-0.06337727,0.50915617,-1.1371256,0.64217,-0.57380044,0.38754407,0.32890776
264423360000000,1.5615883,3.382572,-1.5855542,0.0,0.0,0.0,0.6434954,-0.5768503,0.3890379,0.31907204
264423380000000,1.3069725,3.779014,-1.4751562,0.5329799,0.8549059,-0.22907446,0.6439967,-0.57715696,0.39466935,0.31047428
264423400000000,1.0256114,3.8358836,-1.2354927,0.50610185,0.9253081,0.23258694,0.6426653,-0.5758669,0.4033351,0.30443317
264423420000000,0.67799664,3.5170407,-0.8974768,0.38056904,0.9790643,0.6728681,0.6389654,-0.573691,0.41444752,0.3013886
264423440000000,0.37750816,3.0577967,-0.52458704,0.2750421,0.9973902,1.102001,0.63312185,-0.57042176,0.427759,0.3013272
264423460000000,0.16044044,2.5053864,-0.06899068,0.22204952,0.9963212,1.5360206,0.62547916,-0.56548727,0.44321457,0.30423838
264423480000000,0.04286766,1.9013097,0.61708003,0.1601994,0.98349303,1.9237673,0.6160208,-0.5586319,0.4606774,0.3102017
264423500000000,-0.27149963,0.9862993,0.8417484,0.08933904,0.9798279,2.2785273,0.6049833,-0.53908825,0.48123097,0.33435896
264423520000000,-1.2212429,0.40212345,0.72387254,0.09056077,1.0315987,2.6360362,0.5916139,-0.5292729,0.50150144,0.34403417
264423540000000,-1.7787018,-0.25697112,0.37205923,0.13836098,0.9831876,2.9857566,0.57689494,-0.5168687,0.52321863,0.35536095
264423560000000,-1.1057644,-0.9908782,0.3997494,0.08460484,0.8031351,3.242778,0.561416,-0.5020488,0.5446237,0.3689774
264423580000000,-1.2307501,-1.9212381,1.0549055,-0.16172658,0.89644474,3.3713653,0.54342574,-0.4873597,0.5654338,0.38399684
264423600000000,-3.6651878,-3.1911929,1.9824044,-0.37827832,1.2235631,3.4574974,0.5213957,-0.47421947,0.58679694,0.39866275
264423620000000,-4.418891,-4.08801,4.5623236,-1.3982705,0.28817567,3.1497738,0.4775904,-0.44757602,0.61864567,0.4345812
264423640000000,-3.2698908,-5.087102,4.4508553,-4.6911397,-0.16676621,2.349235,0.44665292,-0.45387813,0.6075104,0.47479147
264423660000000,-2.092784,-9.504402,3.6170855,0.0,0.0,0.0,0.41193146,-0.46015358,0.5903431,0.519679
264423680000000,-1.6652956,-11.514992,4.3770843,-2.9013045,-0.14095716,2.3154848,0.38532373,-0.45833623,0.583368,0.548758
264423700000000,-1.9853783,-10.546555,4.299824,-0.059406646,0.18799378,2.161394,0.37158614,-0.44776675,0.5919368,0.5577093
264423720000000,-2.5877047,-9.599699,3.5451784,1.3857478,0.43478334,2.0158553,0.36368248,-0.4330448,0.6100005,0.5550736
264423740000000,-2.2061386,-9.027187,2.6980195,1.8683313,0.29138273,1.7122552,0.36027747,-0.41745007,0.6286022,0.5484477
264423760000000,-1.1461363,-8.97097,2.364353,1.9255999,0.21090123,1.3849843,0.35938156,-0.40266046,0.64565426,0.5402222
264423780000000,-0.49748898,-8.470438,2.3899684,1.6323847,0.21639901,0.95707315,0.3651467,-0.39445114,0.65623724,0.52955544
264423800000000,0.0,0.0,0.0,0.96929044,0.13637567,0.573297,0.41311058,-0.4112766,0.6366308,0.50486875
264423820000000,0.6642561,-6.285026,2.0873835,0.012217305,-0.034208454,0.22174409,0.41407037,-0.4099484,0.6370895,0.504584
264423840000000,0.92816734,-6.4863453,2.1799288,0.0,0.0,0.0,0.4081234,-0.41862294,0.628693,0.51277214
264423860000000,0.9683714,-6.9587955,2.3816829,-1.297325,-0.2275473,-0.28603765,0.4114412,-0.42704016,0.6161898,0.51832706
264423880000000,1.1500635,-6.3673387,1.8581665,-1.2606732,-0.2666427,-0.43951756,0.44673115,-0.45657784,0.57451683,0.5117601
264423900000000,0.85082436,-6.386075,1.7268103,-0.8772025,-0.2602286,-0.5682574,0.4519772,-0.46488026,0.5621905,0.51336616
264423920000000,0.45169544,-6.190598,1.5389748,-0.3465133,-0.24724771,-0.625526,0.44944376,-0.47575358,0.55148506,0.51722634
264423940000000,0.120983124,-5.8530197,1.4025357,0.08781188,-0.21288654,-0.6281222,0.4543474,-0.47790417,0.54766077,0.51501817
264423960000000,-0.13351727,-5.44797,1.2120833,0.39064834,-0.14813483,-0.6239988,0.45508263,-0.4844567,0.54216105,0.51406527
264423980000000,-0.03816223,-5.2985706,1.1141907,0.59299743,-0.13561209,-0.7377725,0.46241653,-0.48505482,0.54090786,0.50824356
264424000000000,-0.2348404,-5.037528,1.0621663,0.8381071,-0.035277467,-0.9092729,0.46680257,-0.49066997,0.537098,0.502856
264424020000000,-0.8993025,-4.9146643,1.2625299,1.1933253,0.02733622,-1.1036807,0.4777851,-0.49122936,0.5375924,0.49133453
264424040000000,-1.1805716,-4.476518,1.2210974,1.5667167,-0.047800206,-1.2513574,0.48789057,-0.49457878,0.5357578,0.4799149
264424060000000,-1.0987272,-3.984204,1.071625,1.8225164,-0.16203201,-1.3655893,0.504075,-0.49216232,0.5368049,0.46424687
264424080000000,-1.8976793,-3.4666722,0.8331325,1.9138408,-0.17577648,-1.5054774,0.5196939,-0.49150947,0.535834,0.44857416
264424100000000,-3.4469366,-3.0893438,0.561195,2.002111,-0.20112738,-1.613906,0.53613895,-0.49058822,0.534438,0.43157187
264424120000000,-3.613038,-2.0445194,0.015401933,2.0260873,-0.5319109,-1.6313156,0.5542004,-0.48803163,0.53109705,0.4154793
264424140000000,-1.420187,-0.74597955,-0.60462016,1.7102699,-0.99173975,-1.6861408,0.57461554,-0.48299327,0.5248223,0.40136787
264424160000000,0.6024618,-0.11710143,-0.7217867,1.0622946,-1.1171198,-1.9278907,0.5908719,-0.4851616,0.5110918,0.39277706
264424180000000,0.44369507,0.014966011,-0.66956824,0.52213705,-0.90667677,-2.252871,0.6068635,-0.48941404,0.49680758,0.38127786
264424200000000,-1.7242575,0.47660303,-1.0418954,0.28130344,-0.6988298,-2.4587326,0.6186902,-0.4999024,0.4791781,0.3710909
264424220000000,-3.4983072,1.3691916,-1.9720991,0.057268616,-0.7866417,-2.4898868,0.6317197,-0.50835395,0.46225342,0.35892656
264424240000000,-3.204873,2.0184019,-2.7926202,-0.32818735,-1.1096367,-2.3919957,0.6415354,-0.5198754,0.43976933,0.35322058
264424260000000,-1.6685133,2.246969,-3.1330566,-0.71853024,-1.2475395,-2.2339342,0.65111095,-0.5295436,0.41754255,0.34827626
264424280000000,-0.4744072,1.8759072,-2.3510354,-0.9961685,-1.0279335,-2.0916026,0.63100725,-0.54860485,0.4163104,0.3571392
264424300000000,-0.5527973,1.7888699,-1.7104481,-1.1097895,-0.74067414,-1.9714148,0.62143683,-0.56220585,0.4097126,0.3603837
264424320000000,-0.8669491,2.204027,-1.5278642,-1.0622946,-0.61162883,-1.781894,0.61947846,-0.573677,0.3967291,0.3602042
264424340000000,-0.43657684,2.7774673,-1.6127483,-0.9815077,-0.6133087,-1.5102116,0.6197326,-0.58342135,0.38256708,0.35943502
264424360000000,0.37390232,3.1051793,-1.6833892,-0.9286679,-0.51923543,-1.201572,0.620614,-0.59190744,0.36869404,0.35853684
264424380000000,1.0148611,3.0353432,-1.4682983,-0.82634795,-0.3277292,-0.8677341,0.62003773,-0.59912336,0.35825086,0.3581351
264424400000000,1.2176042,2.7467463,-1.1431464,-0.54260105,-0.13240504,-0.5296202,0.61893475,-0.60426056,0.35178602,0.35782054
264424420000000,1.1306744,2.6439352,-0.96682316,-0.08750644,0.013591751,-0.17684549,0.61881334,-0.6058496,0.35009062,0.35700554
264424440000000,0.82356596,2.8074508,-1.1135483,0.34956762,0.10415252,0.17730364,0.61979526,-0.60375196,0.35269886,0.3562879
264424460000000,0.42362213,2.986578,-1.346401,0.5705481,0.14309518,0.50579643,0.6209452,-0.5990379,0.3585379,0.3564145
264424480000000,0.19992542,2.9270806,-1.3921652,0.58184916,0.12614368,0.79076505,0.6211435,-0.5931184,0.3659686,0.35841075
264424500000000,0.016358376,2.6195512,-1.268008,0.51251596,0.111635625,1.0542006,0.6199975,-0.58645207,0.37472337,0.3622975
264424520000000,-0.47423553,2.343742,-1.196795,0.35643986,0.15485434,1.2948816,0.61255634,-0.57929814,0.38875908,0.3715574
264424540000000,-1.5624924,2.2571762,-1.477618,0.04917465,0.2405282,1.5392277,0.6064197,-0.5736738,0.39928284,0.37911332
264424560000000,-2.5153236,1.9356115,-1.7911222,-0.38056904,0.2415972,1.8165605,0.59628636,-0.56974185,0.40928444,0.390286
264424580000000,-2.5077095,1.2963035,-1.7885363,-0.817185,0.14431691,2.1287127,0.5829098,-0.5662745,0.41903675,0.40491682
264424600000000,-1.3146734,0.48553324,-1.3247948,-1.2441798,0.04795292,2.4118488,0.5651371,-0.56418604,0.42668757,0.42456096
264424620000000,0.09022331,-0.50731397,-0.5722623,-1.5580118,0.08277224,2.5940392,0.544911,-0.56192493,0.43492562,0.44514287
264424640000000,1.0185356,-1.3669708,0.20533693,-1.6032158,0.22525656,2.6575692,0.5219774,-0.5608952,0.442165,0.46628997
264424660000000,1.1245947,-2.0732567,0.72323155,-1.3538301,0.45616361,2.6444356,0.5002292,-0.5583701,0.45207864,0.483341
264424680000000,0.42690277,-2.5877202,0.9863062,-0.88315845,0.6924158,2.6088529,0.48584035,-0.55716085,0.45751014,0.4941817
264424700000000,-0.65355873,-3.3318818,1.3844662,-0.33948836,0.8547532,2.5725062,0.4670505,-0.5512883,0.47372353,0.50351876
264424720000000,-2.1838932,-3.8070812,2.3045025,-0.05177083,0.8735373,2.509129,0.4489013,-0.5448171,0.4902098,0.5112302
264424740000000,-3.1914883,-4.429201,2.8270965,-0.22235495,0.6927212,2.4411702,0.431857,-0.53730667,0.5054428,0.51896894
264424760000000,-3.1277323,-5.932782,2.514268,-0.05421429,0.66981375,2.5011878,0.4138282,-0.5293034,0.5200563,0.5273762
264424780000000,-2.9051065,-6.574761,1.9525009,0.36819902,0.61407226,2.385887,0.3997015,-0.5188038,0.53656065,0.5321505
264424800000000,-2.8598366,-6.8992624,1.9508488,0.894154,0.75502944,2.2307272,0.38709667,-0.5081474,0.55459666,0.5332588
264424820000000,-2.5620918,-6.4996595,2.670916,0.9949468,0.7060075,1.8901697,0.3780291,-0.49727568,0.57239693,0.5311993
264424840000000,-1.5383301,-6.0040283,3.411334,0.55863625,0.59864795,1.4743233,0.36866617,-0.49049267,0.5845097,0.5308961
264424860000000,-0.4655857,-5.4762754,3.6305833,-0.10430524,0.5187773,1.0041097,0.36204618,-0.48773396,0.58972263,0.5322268
264424880000000,0.3857832,-5.060723,3.5504239,-0.7078401,0.462425,0.5531385,0.37033486,-0.49373415,0.5759992,0.53600705
264424900000000,0.85794353,-5.519559,3.7626462,-1.0699304,0.39064834,0.17073683,0.36774975,-0.4996318,0.5682731,0.5405496
264424920000000,1.1523838,-5.8777733,3.706441,-1.1174252,0.3080288,-0.11484267,0.37841588,-0.51236427,0.54513496,0.5450799
264424940000000,1.2315302,-5.5277505,3.1060894,-0.8524625,0.25121832,-0.2910773,0.40752548,-0.5245905,0.5130696,0.5435875
264424960000000,1.0412312,-5.487665,2.9181128,-0.4259258,0.20005837,-0.3678936,0.40990195,-0.5340008,0.5008485,0.5440353
264424980000000,0.80190945,-5.4850802,3.0691845,0.021991149,0.12522738,-0.38347065,0.4124276,-0.5368898,0.49825996,0.54165477
264425000000000,0.59670544,-5.43108,3.2608428,0.42638394,0.03191771,-0.36102137,0.41349465,-0.540521,0.49559623,0.53967
264425020000000,0.2840004,-5.1136293,3.2312987,0.70509124,-0.05955936,-0.36545014,0.41952392,-0.5391759,0.49705508,0.53500026
264425040000000,-0.028985023,-4.611811,2.83362,0.829555,-0.15974127,-0.41645738,0.4242096,-0.53984594,0.4960109,0.531588
264425060000000,0.020025253,-4.067355,2.2423182,0.81153446,-0.27168232,-0.54168475,0.43306744,-0.53759855,0.49609143,0.52662486
264425080000000,-0.6096926,-4.0197496,2.0696328,0.73563445,-0.28252518,-0.7877107,0.44000626,-0.53925455,0.492196,0.52282137
264425100000000,-2.9909592,-4.261385,2.2425377,0.8544478,-0.1518,-1.052368,0.4506313,-0.53985447,0.49012706,0.51503813
264425120000000,-3.961421,-3.5845797,1.6101838,1.14018,-0.42455134,-1.1363621,0.46205282,-0.5409093,0.4857712,0.50788844
264425140000000,-1.3310413,-2.561805,0.52837944,1.2289082,-0.96669424,-1.1582005,0.47903016,-0.535955,0.4815092,0.5014293
264425160000000,1.1231728,-2.019815,-0.02120626,0.9149234,-1.043816,-1.4596626,0.49457645,-0.5347673,0.47154462,0.497055
264425180000000,1.3081989,-1.7590699,0.02614814,0.6088799,-0.8239045,-1.8555032,1.0,0.0,0.0,0.0
264425200000000,-0.13639927,-1.020626,-0.11494666,0.55573463,-0.68584895,-2.1852176,0.5259786,-0.5410483,0.44665903,0.48073792
264425220000000,-1.435214,-0.035903692,-0.6465622,0.5410739,-0.7828238,-2.39337,0.54360527,-0.54493743,0.43238094,0.46966287
264425240000000,-1.4849281,0.6539328,-1.3345065,0.26297748,-1.0691669,-2.5633433,0.56003195,-0.5507225,0.4124754,0.46144676
264425260000000,-1.7185221,0.8440852,-1.8078228,-0.16982053,-1.1513283,-2.6812403,0.5761639,-0.5569005,0.39045936,0.4532534
264425280000000,-3.7395601,0.84952426,-2.3074973,-0.35094208,-0.93752545,-2.6615398,0.5887976,-0.5656926,0.36721033,0.4454951
264425300000000,-5.984726,1.3639295,-3.0542674,-0.3200934,-0.9651671,-2.5105035,0.6013142,-0.5725808,0.34590623,0.43694544
264425340000000,0.0,0.0,0.0,-0.6623306,-1.696831,-2.0011945,1.0,0.0,0.0,0.0
