timestamp,accel_x,accel_y,accel_z,gyro_x,gyro_y,gyro_z,rot_w,rot_x,rot_y,rot_z
3631840000000,0.0,0.0,0.0,-3.33059,-1.640784,-3.011871,1.0,0.0,0.0,0.0
3631860000000,-3.6099815,-1.0823388,-0.7437254,-3.0121765,-1.4288138,-3.503312,0.35788426,0.4122157,0.5459211,-0.6355842
3631880000000,-3.8779154,-0.21741009,-0.83247375,-2.5117252,-1.2177598,-3.8159225,0.35241747,0.3733491,0.57341087,-0.6384453
3631900000000,-4.100771,0.42210007,-0.90235984,-1.8422168,-1.0009027,-3.9321396,0.34140363,0.33594286,0.59733814,-0.6432521
3631920000000,-4.4113064,1.384543,-1.2223173,-1.1640037,-0.86284715,-3.8799107,0.32609773,0.30154476,0.61617994,-0.6504255
3631940000000,-4.4135637,2.5931277,-1.5808678,-0.60154957,-0.80939645,-3.6830592,0.30878338,0.27005872,0.6297298,-0.6596678
3631960000000,-4.0760293,3.5988436,-1.9086554,-0.129198,-0.7678576,-3.3748777,0.29294926,0.23992918,0.6393255,-0.6692367
3631980000000,-3.645814,4.4552345,-2.1431103,0.29016098,-0.72494435,-3.0017917,0.27644455,0.21549919,0.6435827,-0.6803968
3632000000000,-2.704246,4.7996497,-2.0719535,0.61193424,-0.6928739,-2.579684,0.28310984,0.21993037,0.64560103,-0.67429864
3632020000000,-2.275813,5.544093,-2.3053315,0.782213,-0.6585127,-2.1346686,0.27022672,0.20260501,0.64359796,-0.6868118
3632040000000,-1.8721266,6.0901403,-2.495684,0.79137594,-0.58368176,-1.6803375,0.261751,0.18671913,0.6405465,-0.6973684
3632060000000,-1.6097736,6.4830475,-2.6733131,0.68554354,-0.48258355,-1.2174544,0.25585097,0.1742697,0.63702065,-0.7059568
3632080000000,-1.4251862,6.654437,-2.7642708,0.50793445,-0.37293324,-0.75533485,0.25270453,0.1652173,0.6338421,-0.71210104
3632100000000,-1.2460132,6.7330008,-2.7661443,0.29352075,-0.2359467,-0.29611692,0.2505566,0.16110101,0.63111085,-0.7162171
3632120000000,-1.2114758,6.6379213,-2.7000847,0.0804815,-0.087201014,0.15928312,0.25429544,0.15745218,0.63038385,-0.7163511
3632140000000,-1.3302217,6.441216,-2.6287494,-0.08597928,0.043982297,0.6065892,0.2574519,0.16010393,0.6299272,-0.71503633
3632160000000,-1.44734,6.1919675,-2.550106,-0.17363845,0.14874569,1.0592403,0.26641226,0.16315332,0.63073117,-0.7103407
3632180000000,-1.476306,5.8841386,-2.4735124,-0.18661933,0.24816401,1.5039502,0.27484685,0.17249133,0.63048846,-0.7051173
3632200000000,-1.5502172,5.4677114,-2.351654,-0.12385293,0.36346483,1.9333885,0.28566203,0.18523046,0.62946314,-0.698472
3632220000000,-1.7452736,4.977733,-2.3009777,-0.007483099,0.48197266,2.3554964,0.29825592,0.20178488,0.62698704,-0.6908065
3632240000000,-1.9990911,4.452213,-2.2864575,0.11575896,0.6186538,2.7527115,0.313843,0.22442892,0.6228574,-0.6805754
3632260000000,-2.3072462,3.782726,-2.3119497,0.2087632,0.7849618,3.114649,0.3324781,0.25457084,0.6171741,-0.66614425
3632280000000,-2.7824297,3.0244155,-2.0928817,0.32559118,0.9447031,3.4116824,0.34817678,0.2815668,0.60962605,-0.6541019
3632300000000,-3.2036257,2.0150275,-1.5679536,0.5731443,1.0467176,3.6264014,0.3637621,0.31116462,0.59995925,-0.64101696
3632320000000,-3.336894,0.83661985,-1.1072652,1.0195341,1.1436925,3.7349827,0.3782064,0.34305295,0.58694774,-0.62830484
3632340000000,-3.3416681,-0.2505672,-1.0099614,1.6180294,1.3006848,3.737579,0.38973132,0.37748262,0.5698609,-0.61715084
3632360000000,-3.317338,-1.3183377,-0.80555767,2.3101397,1.4732542,3.6123517,0.39514166,0.415869,0.5475778,-0.60915893
3632380000000,-3.169796,-2.4590282,-0.22609025,3.1140382,1.6102408,3.3680055,0.39602908,0.4547967,0.5220108,-0.60317963
3632400000000,-2.6263733,-3.4791083,0.2555403,3.9309177,1.7368426,2.9729285,0.38745758,0.49672478,0.4903287,-0.6022614
3632420000000,-1.9436932,-3.6883354,0.3421322,4.4703116,1.8849775,2.460565,0.37277484,0.5367926,0.457383,-0.60307
3632440000000,-1.5916862,-3.228389,0.49511066,4.493372,1.9853121,1.8944459,0.34954247,0.57603246,0.42302594,-0.6058513
3632460000000,-1.5659943,-2.7336657,1.0587919,4.0046797,1.9413297,1.3345878,0.32539892,0.6089525,0.3944372,-0.6063924
3632480000000,-1.5774441,-2.3043098,2.0255556,3.1977267,1.765706,0.83077675,0.29964566,0.63692474,0.36949107,-0.606643
3632500000000,-1.4417009,-1.8214109,2.8854878,2.2175937,1.4979943,0.39690968,0.27986777,0.6565587,0.3543682,-0.6041755
3632520000000,-1.1213303,-1.339158,3.5325747,1.163851,1.1707232,0.07513642,0.26389125,0.6705285,0.34501514,-0.6014297
3632540000000,-0.6640949,-1.2990513,4.0136805,0.2218968,0.86330533,-0.12812899,0.25611112,0.67760783,0.34444958,-0.5971678
3632560000000,-0.26547718,-1.4274992,4.3369613,-0.54443365,0.5823073,-0.22266038,0.25410518,0.6796184,0.3488858,-0.59315103
3632580000000,0.17288017,-1.378592,4.246768,-1.1397219,0.2782491,-0.27687466,0.25768998,0.6702469,0.35642081,-0.59777015
3632600000000,0.5994997,-1.2850242,3.575571,-1.5567901,0.020005837,-0.31047225,0.26339293,0.6439532,0.36354437,-0.61950296
3632620000000,0.73195934,-1.4914739,3.050158,-1.6902641,-0.22540927,-0.34284812,0.27077684,0.6206892,0.37596536,-0.6325145
3632640000000,0.69695187,-1.5782163,2.4185236,-1.5761851,-0.44822237,-0.37675115,0.27294436,0.5948019,0.3870076,-0.64956695
3632660000000,0.5902462,-1.5126233,1.9065499,-1.41904,-0.65316767,-0.4259258,0.27835572,0.57545406,0.39939764,-0.65715474
3632680000000,0.35984802,-1.2812166,1.475213,-1.3277156,-0.8520043,-0.5015204,0.28142267,0.5631,0.40583235,-0.66258574
3632700000000,0.0367136,-1.2429521,1.2560899,-1.2667818,-1.063211,-0.61193424,0.2886836,0.550086,0.41491005,-0.66476834
3632720000000,-0.32106113,-1.1101127,0.92263955,-1.1791227,-1.24082,-0.731053,0.292519,0.5381073,0.41990772,-0.6697393
3632740000000,-0.8012123,-0.74338746,0.46749568,-1.1943942,-1.3982705,-0.8755226,0.29885778,0.5223385,0.42800856,-0.67428124
3632760000000,-1.3300362,-0.38959336,-0.087877214,-1.363604,-1.5526668,-1.0296134,0.30233103,0.5064501,0.43410057,-0.6809266
3632780000000,-1.8545437,-0.4473784,-0.40664613,-1.5884024,-1.7024814,-1.244638,0.30915192,0.48574764,0.44486314,-0.68598187
3632800000000,-2.3705225,-0.7675154,-0.7180023,-1.7924314,-1.7832683,-1.5569428,0.3127766,0.46405533,0.4552076,-0.69253844
3632820000000,-2.9191856,-1.0209486,-1.4103101,-1.9908098,-1.7724255,-2.030058,0.31723437,0.43741375,0.4707908,-0.697415
3632840000000,-3.5836678,-1.1830935,-2.1087124,-2.3429737,-1.732872,-2.7096455,0.31573522,0.4088125,0.4884038,-0.7033104
3632860000000,-4.308466,-1.2175694,-2.2177327,-2.5625796,-1.5856534,-3.4683402,0.31193736,0.37347537,0.51315504,-0.7070242
3632880000000,-5.2674623,-0.87836933,-1.7831645,-2.3003657,-1.3208433,-4.0767617,0.29993895,0.33639508,0.5393198,-0.7113433
3632900000000,-6.2792044,-0.057678223,-1.6256726,-1.6907222,-1.119716,-4.4408374,0.2818822,0.29820034,0.56394887,-0.7166454
3632920000000,-6.7941613,1.1379604,-1.7927859,-1.0282389,-1.0305296,-4.5185704,0.25882706,0.26105857,0.5832797,-0.72432154
3632940000000,-6.577301,2.3285403,-2.2838535,-0.49770245,-0.95081174,-4.3634105,0.23385948,0.22592412,0.5966844,-0.7336455
3632960000000,-6.043553,3.5105448,-2.6832478,-0.1386664,-0.8782715,-4.055687,0.20885964,0.19352713,0.6054521,-0.7432044
3632980000000,-5.3778877,4.455261,-2.9158113,0.16065755,-0.8374963,-3.656334,0.18534002,0.16400686,0.61039096,-0.75244516
3633000000000,-4.482217,5.22457,-3.1159432,0.45173484,-0.7841983,-3.1769574,0.16670547,0.14007543,0.6121468,-0.760174
3633020000000,-3.6885376,6.0297422,-3.366994,0.6404922,-0.6956228,-2.6623034,0.14854833,0.11786758,0.6102243,-0.76919895
3633040000000,-3.1194925,6.724989,-3.5105991,0.6623306,-0.5757405,-2.138181,0.1363485,0.0973975,0.6072895,-0.7766096
3633060000000,-2.9270897,7.1467886,-3.5394695,0.57910025,-0.44409904,-1.6073391,0.124637574,0.08338131,0.6034161,-0.78319997
3633080000000,-2.970645,7.3328323,-3.5573802,0.4622723,-0.3213151,-1.0677924,0.11973477,0.070738375,0.6006137,-0.7873517
3633100000000,-3.0179298,7.446492,-3.5273533,0.30298916,-0.21517728,-0.5290093,0.11516386,0.06477936,0.59785134,-0.790642
3633120000000,-2.9767418,7.5488014,-3.509587,0.112704635,-0.09605856,0.0022907446,0.117194295,0.060348105,0.59677696,-0.79150546
3633140000000,-3.0063019,7.325789,-3.4664469,-0.06078109,0.06536258,0.4980079,0.11970234,0.062183905,0.5965864,-0.7911316
3633160000000,-3.3604214,6.952292,-3.4115791,-0.15378532,0.20937407,0.97295564,0.127542,0.066036016,0.59779996,-0.78867453
3633180000000,-3.7308712,6.7283506,-3.4870043,-0.19929479,0.3222314,1.4317154,0.13584198,0.07551893,0.59877187,-0.78569466
3633200000000,-3.9308286,6.624071,-3.5729966,-0.25518894,0.43463063,1.8767308,0.14714818,0.08832858,0.59978086,-0.7815423
3633220000000,-3.9824333,6.304631,-3.5418673,-0.30069843,0.5707009,2.3080015,0.16109376,0.10477708,0.60077196,-0.7759791
3633240000000,-4.1984177,5.5782766,-3.456143,-0.30298916,0.75426584,2.675437,0.17713948,0.12477992,0.60143805,-0.7689758
3633260000000,-3.9176793,4.657642,-2.8966126,-0.26542094,0.91232723,3.0079005,0.21705182,0.18328619,0.60603416,-0.7429787
3633280000000,-4.255969,4.277343,-2.789938,-0.22571471,1.0207558,3.2991304,0.23516157,0.20936984,0.6038178,-0.73230284
3633300000000,-4.280915,3.8572168,-2.5385494,-0.1282817,1.1403327,3.5459201,0.25413665,0.23756246,0.60016143,-0.72026736
3633320000000,-4.4110365,3.1204576,-2.1043158,0.13836098,1.2669345,3.7398698,0.27204207,0.26904422,0.5938313,-0.70779425
3633340000000,-4.5478253,2.224845,-1.8799448,0.57986385,1.3930782,3.876551,0.29000384,0.30189183,0.58419114,-0.69532716
3633360000000,-4.410709,1.4593825,-2.4364276,1.1239921,1.6317738,3.9816196,0.30467013,0.33840892,0.5696392,-0.6842271
3633380000000,-4.522749,-0.00065231323,-1.5720496,2.0899227,1.8617646,3.9800925,0.3163826,0.37768748,0.55043757,-0.67399764
3633400000000,-4.6400366,-2.346459,0.3729955,3.6983309,1.9427042,3.827987,0.31917146,0.42219093,0.52062476,-0.669951
3633420000000,-3.517809,-3.4842234,0.4998119,5.2989507,2.0899227,3.4193182,0.31286377,0.4686328,0.47929686,-0.672885
3633440000000,-2.3890133,-2.9262204,-0.55219436,6.120717,2.3776402,2.8212812,0.29177338,0.51770985,0.42852697,-0.6805949
3633460000000,-2.3162022,-2.13772,-0.9798238,6.00618,2.4941628,2.2162192,0.2648997,0.56202865,0.3796696,-0.68542176
3633480000000,-2.412612,-2.1788807,-0.31487823,5.4023395,2.3797784,1.5890132,0.23421758,0.6006598,0.33457163,-0.6873222
3633500000000,-2.2901154,-1.9159143,0.6226254,4.6663995,2.121535,0.981355,0.2047127,0.63097215,0.29765394,-0.6865632
3633520000000,-1.8892994,-0.88405,1.2280163,3.6910005,1.8128953,0.4801401,0.17579506,0.65467554,0.26730558,-0.6848678
3633540000000,-1.4585562,0.13294637,2.0035033,2.4598017,1.4488196,0.08307768,0.15315823,0.671238,0.24774891,-0.68161774
3633560000000,-0.8820553,0.62673825,2.7905293,1.2279918,1.0871874,-0.18997909,0.13680339,0.6822195,0.23739555,-0.67786777
3633580000000,-0.43303394,0.6520003,3.360983,0.22021692,0.7603745,-0.3556763,0.12870921,0.6878425,0.2364353,-0.67409575
3633600000000,0.0,0.0,0.0,0.0,0.0,0.0,0.12661353,0.68851984,0.24070212,-0.6722886
3633660000000,0.0,0.0,0.0,0.0,0.0,0.0,0.15170698,0.6415154,0.2696857,-0.701935
3633700000000,0.40853977,-0.7496376,1.6540561,0.0,0.0,0.0,1.0,0.0,0.0,0.0
3633740000000,0.0,0.0,0.0,0.0,0.0,0.0,0.1998197,0.5707711,0.33443025,-0.72280633
