accel_x,accel_y,accel_z,gyro_x,gyro_y,gyro_z,rot_w,rot_x,rot_y,rot_z,timestamp
-0.09771538,0.1186738,0.31185025,0.0,0.0,0.0,1.0,0.0,0.0,0.0,245014146600161
-0.04127693,0.12815356,0.3849265,0.0061086523,0.10064005,0.09315695,1.0,0.0,0.0,0.0,245014166558720
0.026548386,0.11719203,0.4206359,0.012064588,0.095753126,0.08903361,0.5288158,0.32628396,0.6055005,-0.4972544,245014186509649
0.020867348,0.07341218,0.4427888,0.0027488936,0.09117164,0.07574729,1.0,0.0,0.0,0.0,245014206452948
0.0151433945,0.08508825,0.4755657,-0.0010690142,0.07467828,0.07070765,0.52856743,0.32796633,0.60585123,-0.49598268,245014226373362
0.020519257,0.07194495,0.4980011,-0.005955936,0.053297993,0.063988134,0.5286165,0.32855535,0.60591567,-0.4954616,245014246270884
0.01157856,0.05541563,0.5363873,-0.0154243475,0.037110064,0.056505036,1.0,0.0,0.0,0.0,245014266191296
0.009320259,0.0028088093,0.56788474,-0.01450805,0.021685716,0.04810564,1.0,0.0,0.0,0.0,245014286134595
0.019638062,0.001278162,0.531327,-0.00061086525,0.004581489,0.041996986,0.52913564,0.32951972,0.60581464,-0.49438936,245014306108415
0.006869316,-0.029315233,0.49042735,0.013286319,-0.010079277,0.03145956,0.52932614,0.3297106,0.60556173,-0.49436805,245014326112750
0.0085372925,-0.026080847,0.4379519,0.024740042,-0.022602014,0.01786781,0.529476,0.32982612,0.60523504,-0.49453062,245014346086568
0.034650803,0.015614271,0.39425787,0.040317107,-0.036651913,0.0047342055,0.5296004,0.32986993,0.60480505,-0.494894,245014366029867
0.001250267,0.053288937,0.3506958,0.045356743,-0.047036625,-0.013286319,0.5296744,0.32979015,0.6043507,-0.49542275,245014385980799
0.009274483,0.07135701,0.28061086,0.036193766,-0.054061573,-0.03191771,0.5297265,0.3295064,0.603983,-0.4960041,245014405939358
-0.0065078735,0.085861444,0.23723537,0.024892759,-0.06337727,-0.04810564,1.0,0.0,0.0,0.0,245014425890287
0.0,0.0,0.0,0.021380283,-0.07086037,-0.059101213,0.5298698,0.3284019,0.6033886,-0.49730527,245014445833585
0.0,0.0,0.0,0.021991149,-0.0759,-0.06627888,0.5299278,0.3277402,0.6030878,-0.4980443,245014465776886
0.0051412582,0.1674223,0.11127591,0.015882496,-0.074830994,-0.07544186,0.5299572,0.32699138,0.6028568,-0.49878427,245014485720185
-0.016904831,0.19283152,0.041362226,0.01038471,-0.07086037,-0.08353582,1.0,0.0,0.0,0.0,245014505671117
-0.008507729,0.20426655,0.006564498,0.0076358155,-0.06765333,-0.09117164,0.5298572,0.32534802,0.60260224,-0.50027055,245014525629676
-0.00315094,0.23718786,0.015028894,0.0,0.0,0.0,0.52976316,0.3244905,0.6025235,-0.5010214,245014545580605
0.0,0.0,0.0,0.013439035,-0.068264194,-0.09208794,0.5296799,0.32366452,0.6023861,-0.5018082,245014565523904
0.10688686,0.30771136,-0.04760927,0.0,0.0,0.0,0.5294386,0.32294017,0.6022985,-0.5026339,245014585467206
0.0,0.0,0.0,0.02733622,-0.03848451,-0.10338894,0.52904767,0.3222835,0.60229903,-0.50346583,245014605410505
0.038934708,0.36751485,-0.06571829,0.035277467,-0.036193766,-0.09514226,0.5286645,0.32173172,0.60223234,-0.50430024,245014625361436
0.0,0.0,0.0,0.047494773,-0.02687807,-0.081397794,0.52827364,0.32137743,0.60210073,-0.5050923,245014645319994
0.025686264,0.47817564,-0.09082174,0.045356743,-0.012980887,-0.06963864,0.5278522,0.32116413,0.6020168,-0.50576824,245014665248036
-0.0029973984,0.47361517,-0.12526405,0.0,0.0,0.0,0.5275113,0.3209984,0.60201263,-0.50623375,245014685145559
-0.01869011,0.44975114,-0.11568344,0.0,0.0,0.0,0.5272285,0.32088193,0.60206246,-0.5065429,245014705088860
-0.010108948,0.45554137,-0.08395308,0.007483099,0.01160644,-0.035277467,0.5269687,0.32078433,0.60220015,-0.50671154,245014725077937
0.0,0.0,0.0,0.0021380284,0.020922136,-0.03191771,0.5266768,0.32072783,0.6024034,-0.506809,245014745051755
-0.033205986,0.41850376,-0.08041459,-0.00290161,0.024587326,-0.02855795,0.5264011,0.32068092,0.602638,-0.5068462,245014765010314
-0.024022102,0.4292531,-0.075639784,-0.011453724,0.02367103,-0.021991149,0.5261876,0.32062846,0.60288405,-0.50680846,245014784961243
-0.018043518,0.4631822,-0.023593247,-0.021838432,0.02855795,-0.016035212,0.526021,0.32057524,0.6031907,-0.5066501,245014804904542
-0.017356873,0.43741512,-0.004818797,-0.02977968,0.0364992,-0.012980887,0.525833,0.32055077,0.60356665,-0.50641304,245014824847843
-0.01948452,0.43461323,0.018875837,-0.028710667,0.04230242,-0.006872234,0.5256487,0.32058594,0.603951,-0.5061238,245014844791142
-0.04181099,0.43567657,0.019802392,-0.02321288,0.05024367,0.0015271631,0.5254325,0.32076162,0.6043096,-0.50580895,245014864711555
-0.07309246,0.4120195,0.05962652,-0.020922136,0.056963183,0.012980887,0.5252355,0.32104215,0.60465807,-0.505419,245014884609078
-0.09262276,0.4008181,0.11497468,-0.017256944,0.06078109,0.02733622,1.0,0.0,0.0,0.0,245014904560009
-0.06512642,0.39096975,0.13654894,-0.007483099,0.06383542,0.043066,0.52496046,0.3220275,0.60516113,-0.5044748,245014924564344
-0.028204918,0.35965538,0.15951014,-0.0050396384,0.06688975,0.05177083,0.52483296,0.32269007,0.6053415,-0.50396746,245014944538162
-0.058487892,0.29651165,0.2093814,-0.01160644,0.06795876,0.056352317,1.0,0.0,0.0,0.0,245014964481461
0.0,0.0,0.0,-0.006414085,0.06261369,0.06490443,0.52475584,0.32400155,0.6056829,-0.5027947,245014984424763
0.0,0.0,0.0,0.0076358155,0.05390886,0.07086037,0.5247881,0.3247442,0.6056667,-0.5023012,245015004368061
0.033953667,0.21408463,0.3661003,0.014813482,0.04642576,0.06918049,1.0,0.0,0.0,0.0,245015024318992
0.042474747,0.20946622,0.33394203,0.0106901415,0.03772093,0.061850104,1.0,0.0,0.0,0.0,245015044277551
-0.00475502,0.17796516,0.30445236,0.00290161,0.025961773,0.055436023,0.5250114,0.32656646,0.6054269,-0.5011743,245015064228480
-0.029417038,0.13805676,0.32328987,-0.00290161,0.014660766,0.05177083,0.52521366,0.32692116,0.60533303,-0.5008445,245015084171779
-0.03909111,0.113693714,0.27530834,0.0,0.0,0.0,0.5254403,0.32723758,0.6052039,-0.5005561,245015104122711
-0.03773117,0.10346198,0.22289741,0.00061086525,0.0027488936,0.041996986,0.5256433,0.32749897,0.60506684,-0.50033766,245015124081270
-0.048062325,0.102608204,0.1515266,0.001985312,-0.00030543262,0.035124753,0.52581614,0.32772377,0.6049251,-0.5001803,245015144032199
-0.07579994,0.081416845,0.15858603,0.0016798794,-0.0009162979,0.024281893,0.52594304,0.32786742,0.6048295,-0.5000683,245015163975498
-0.06020546,0.051615715,0.23418269,0.0,0.0,0.0,1.0,0.0,0.0,0.0,245015183918800
0.009138107,0.048090696,0.20083675,0.041996986,-0.009468411,0.014966198,0.5260254,0.32829675,0.60433865,-0.50029325,245015203862098
0.054969788,0.07358742,0.13391209,0.059101213,-0.0056505036,0.00076358154,0.5258492,0.32860637,0.6039891,-0.5006972,245015223813029
0.04306507,0.14699936,0.11912203,0.054367006,-0.01038471,-0.011911872,0.52566767,0.3287628,0.60370255,-0.50113046,245015243771588
0.06080818,0.18368578,0.12959886,0.04062254,-0.019547688,-0.017562376,0.5255687,0.32876956,0.6034453,-0.5015396,245015263699630
0.065255165,0.2279787,0.14058292,0.031612277,-0.01282817,-0.025503624,0.52542406,0.3287079,0.6033015,-0.50190437,245015283597153
-0.018253326,0.21521497,0.1380406,0.025350908,-0.0035124752,-0.030543262,0.5252038,0.32865205,0.6032522,-0.5022306,245015303540454
-0.043499947,0.21731043,0.10287732,0.020922136,-0.0047342055,-0.027641652,0.5250309,0.32857516,0.6032096,-0.50251275,245015323529529
-0.054599762,0.22496128,0.121863306,0.019547688,-0.007788532,-0.022143865,0.5249197,0.32851508,0.6031255,-0.5027692,245015343472831
-0.03498268,0.22401834,0.1519497,0.028405234,-0.0053450707,-0.01985312,1.0,0.0,0.0,0.0,245015363370353
-0.024302483,0.24495792,0.14874321,0.049632803,0.0012217305,-0.02076942,0.5244978,0.3286878,0.6028151,-0.5034683,245015383321284
-0.020363808,0.2726748,0.19047898,0.06841691,0.00061086525,-0.021227567,0.5241667,0.3289366,0.60252583,-0.50399655,245015403325619
0.020095825,0.32224512,0.18443912,0.07696902,-0.005192355,-0.02076942,0.5238367,0.32921726,0.60214496,-0.50461143,245015423299437
0.02792263,0.35255337,0.19858843,0.0,0.0,0.0,0.5235186,0.32940865,0.60184497,-0.5051742,245015443242736
0.013334274,0.35565996,0.179084,0.053450707,-0.008552114,-0.030390546,0.52324474,0.32947212,0.60162055,-0.5056835,245015463193667
0.00049495697,0.3662243,0.16591668,0.0,0.0,0.0,1.0,0.0,0.0,0.0,245015483152226
0.0,0.0,0.0,0.023365596,-0.026572637,-0.030695979,0.52304465,0.329199,0.6012489,-0.5065098,245015503103155
-0.014083862,0.3731053,0.07757032,0.006872234,-0.025503624,-0.030085113,0.5230401,0.32892966,0.6011716,-0.50678104,245015523046454
-0.051190376,0.35620618,0.05719906,-0.0076358155,-0.026725354,-0.028252518,0.523097,0.3286007,0.6011551,-0.5069553,245015542966868
-0.06077099,0.3367312,0.036419928,0.0,0.0,0.0,0.52322936,0.32825825,0.60115606,-0.5070395,245015562864390
-0.054973602,0.32023144,0.037731588,0.0,0.0,0.0,0.5233403,0.32803783,0.60112554,-0.50710374,245015582784803
-0.018820763,0.30499148,0.041457593,0.0062613687,-0.016340645,-0.004886922,0.52338326,0.32800195,0.6010005,-0.5072309,245015602728102
-0.010985374,0.3179567,0.040645897,0.025045475,-0.0096211275,0.00076358154,0.5233659,0.3281138,0.6008027,-0.5074107,245015622701922
0.012094498,0.3327117,0.047700882,0.040775254,0.0009162979,0.0022907446,0.5232367,0.32836592,0.60058284,-0.5076412,245015642706257
0.0033655167,0.3580017,0.05098027,0.046883907,0.00580322,0.0027488936,0.5230632,0.3286807,0.60035497,-0.50788563,245015662657186
0.007566452,0.36508846,0.061059833,0.03940081,0.005497787,0.0035124752,0.52293026,0.32894394,0.6001629,-0.5080791,245015682554709
-0.004014969,0.3529861,0.06721425,0.02565634,0.008093964,0.005497787,0.52283216,0.32916695,0.600049,-0.50817025,245015702505640
-0.03625965,0.35915446,0.086459875,0.014049901,0.0071776668,0.010842858,0.52281475,0.3293518,0.5999739,-0.5081569,245015722509975
-0.02487278,0.3340702,0.06737691,0.003970624,0.00076358154,0.019700404,0.5229129,0.3295102,0.5998771,-0.50806755,245015742483793
-0.0047426224,0.29049563,0.116971135,-0.0010690142,0.004276057,0.027488936,0.5230523,0.3296925,0.599806,-0.50788975,245015762427091
-0.03165722,0.2687919,0.10748273,0.006414085,0.009315695,0.034055736,0.5231507,0.33000037,0.5996963,-0.50771785,245015782370393
0.0,0.0,0.0,0.013133603,0.009010263,0.037415497,0.5232588,0.3303549,0.5995353,-0.50756615,245015802313692
-0.031040192,0.22490811,0.155841,0.0,0.0,0.0,1.0,0.0,0.0,0.0,245015822264623
0.02970314,0.21469164,0.15099645,0.02031127,0.00076358154,0.03604105,1.0,0.0,0.0,0.0,245015842223182
0.005979538,0.21606064,0.123155594,0.021685716,0.0076358155,0.024892759,1.0,0.0,0.0,0.0,245015862174112
-0.07790184,0.19681454,0.1564436,0.02076942,0.0050396384,0.02107485,0.5235384,0.33159047,0.5987965,-0.5073441,245015882117411
0.0,0.0,0.0,0.026419923,-0.0067195175,0.029321533,0.5236371,0.33190125,0.59849644,-0.5073931,245015902060712
-0.024522781,0.2322805,0.14955175,0.0,0.0,0.0,0.5237815,0.33216688,0.598212,-0.5074057,245015922004011
0.0,0.0,0.0,0.008857546,-0.0041233404,0.027030786,0.523913,0.33236554,0.59804684,-0.5073346,245015941954942
0.018182755,0.14985538,0.19738978,0.0065668016,-0.007483099,0.026419923,0.5240878,0.33250824,0.59788316,-0.5072535,245015961913501
0.02441883,0.13354969,0.18521434,0.023365596,-0.0030543262,0.024129177,1.0,0.0,0.0,0.0,245015981864430
-0.012785912,0.1788981,0.17576689,0.04230242,-0.0050396384,0.019089539,1.0,0.0,0.0,0.0,245016001807729
0.0068950653,0.16113544,0.1928376,0.053145275,-0.014966198,0.017256944,0.52414405,0.33339942,0.5969026,-0.507765,245016021751031
0.033145905,0.15048885,0.2442342,0.0,0.0,0.0,1.0,0.0,0.0,0.0,245016041694330
0.028564453,0.20249534,0.27728856,0.0627664,-0.027488936,0.009468411,0.5241693,0.33395952,0.5959012,-0.50854623,245016061645261
0.04486847,0.20486164,0.24970353,0.045356743,-0.046120327,-0.0053450707,0.5242768,0.33392805,0.5954344,-0.5090028,245016081603820
0.0318079,0.15375853,0.2565418,0.015882496,-0.065209866,-0.02397646,0.52451116,0.33351097,0.5950767,-0.509453,245016101547120
-7.1525574e-05,0.1438477,0.2735572,-0.0071776668,-0.08811731,-0.03924809,0.5248775,0.33276862,0.5947814,-0.50990564,245016121475160
0.1095953,0.15363765,0.2541191,-0.02275473,-0.12873985,-0.053297993,0.525463,0.33165434,0.5943827,-0.51049316,245016141418462
0.24197769,0.17123222,0.14219928,-0.04596761,-0.15836681,-0.07971791,0.5261728,0.33010513,0.59403455,-0.5111709,245016161377021
0.2803812,0.2084024,-0.0015769005,0.0,0.0,0.0,0.52676445,0.32815427,0.5939899,-0.5118692,245016181335580
0.19708252,0.25895762,-0.09203863,-0.11530081,-0.15653422,-0.14660765,0.52731586,0.32584786,0.5942594,-0.5124616,245016201294139
0.13791084,0.26060557,-0.18314528,-0.13713925,-0.14370605,-0.15851954,0.527805,0.32342833,0.5947355,-0.5129384,245016221245068
0.088243484,0.2989726,-0.29373205,-0.13026701,-0.11575896,-0.15561792,0.528104,0.32123673,0.595313,-0.5133376,245016241188367
0.017345428,0.30780554,-0.37747145,-0.10369437,-0.074830994,-0.14019357,0.52814615,0.31952164,0.5959063,-0.5136763,245016261108780
-0.03188896,0.3078928,-0.36178026,-0.059101213,-0.018784106,-0.11285736,1.0,0.0,0.0,0.0,245016281006302
-0.1451912,0.32864046,-0.31401277,0.0,0.0,0.0,1.0,0.0,0.0,0.0,245016300957233
-0.1717434,0.31819224,-0.23657233,0.04627304,0.06856962,-0.01740966,0.5266106,0.31892267,0.597081,-0.51426065,245016320961568
-0.12765694,0.26956487,-0.11879808,0.09758572,0.09911288,0.024587326,0.52583003,0.3201722,0.59699965,-0.5143773,245016340935386
-0.081840515,0.29342747,0.041138828,0.14248432,0.118507855,0.04627304,1.0,0.0,0.0,0.0,245016360878685
-0.04368496,0.31629562,0.13909626,0.15836681,0.123242065,0.048258353,0.52391547,0.3236703,0.5963457,-0.5149,245016380821987
-0.04646778,0.32527232,0.21795815,0.13332134,0.11133019,0.03436117,0.52302086,0.32515576,0.59610564,-0.5151514,245016400765286
-0.010066032,0.33349943,0.25089866,0.0,0.0,0.0,0.52234125,0.32613522,0.596076,-0.51525605,245016420716218
-0.045615196,0.332345,0.29096323,0.0,0.0,0.0,0.5218984,0.32661095,0.59624434,-0.51520884,245016440674777
