accel_x,accel_y,accel_z,gyro_x,gyro_y,gyro_z,rot_w,rot_x,rot_y,rot_z,timestamp
0.04090029,-0.056591034,0.066663265,0.0,0.0,0.0,1.0,0.0,0.0,0.0,244723017884491
0.0,0.0,0.0,0.0,0.0,0.0,0.4294814,-0.7208309,0.49077475,-0.23470998,244723037781191
-0.010022521,-0.0072402954,0.03357792,-0.00030543262,0.05665775,0.03756821,0.42929766,-0.72050285,0.49129477,-0.2349655,244723057731296
0.0,0.0,0.0,0.023060163,0.06307184,0.038331795,1.0,0.0,0.0,0.0,244723077734804
-0.06908858,0.00969696,0.034134865,0.04810564,0.065515295,0.03863723,0.42939946,-0.71948916,0.49223432,-0.23591706,244723097707795
-0.08719963,0.03056717,0.05150795,0.06154467,0.06505715,0.035124753,0.4296266,-0.71888906,0.49261603,-0.23653542,244723117650269
0.0,0.0,0.0,0.061239243,0.06414085,0.029321533,0.4298322,-0.71832865,0.49295276,-0.23716192,244723137592745
-0.16160035,0.13952923,0.053545,0.042760566,0.055436023,0.020616703,0.42991716,-0.7179131,0.49324155,-0.23766573,244723157535219
-0.14018482,0.16558456,0.082623005,0.0,0.0,0.0,0.42987347,-0.7177473,0.4933802,-0.23795755,244723177485325
0.0,0.0,0.0,-0.011759156,0.017562376,-0.01160644,1.0,0.0,0.0,0.0,244723197443058
-0.074599385,0.08564854,0.12254429,-0.029626964,0.006414085,-0.02275473,0.42936984,-0.71807474,0.49331182,-0.23802026,244723217393162
0.0,0.0,0.0,-0.039095376,0.0018325958,-0.030848695,0.42901218,-0.71839315,0.49318627,-0.23796496,244723237335636
-0.10000855,0.034130096,0.08744669,-0.044745877,-0.0027488936,-0.03481932,0.42862824,-0.71876574,0.49302775,-0.2378601,244723257278112
-0.10635096,0.008822441,0.08173847,-0.047036625,-0.004886922,-0.0364992,0.4282443,-0.71915,0.49285787,-0.23774198,244723277220586
0.0,0.0,0.0,0.0,0.0,0.0,0.4278456,-0.7195672,0.49266323,-0.23760103,244723297170692
-0.09635496,0.020482063,0.11149168,-0.051618114,-0.008857546,-0.04062254,0.42743245,-0.72000694,0.49245375,-0.23744622,244723317128425
-0.070497274,-0.048379898,0.07036495,0.0,0.0,0.0,1.0,0.0,0.0,0.0,244723337078529
-0.025884569,-0.01599598,0.026371956,-0.008093964,-0.013591751,-0.051923547,1.0,0.0,0.0,0.0,244723357021003
-0.042271852,0.07646942,0.022807598,-0.0016798794,-0.004886922,-0.05299256,0.42695364,-0.7209967,0.49132025,-0.2376528,244723376963479
-0.04931718,0.114608765,0.041968822,0.0,0.0,0.0,0.42673212,-0.72133505,0.49095082,-0.23778729,244723396905953
-0.016458452,0.058190346,0.049041748,-0.017715093,-0.0013744468,-0.05299256,0.42648074,-0.72168076,0.4906043,-0.2379045,244723416856059
-0.01772505,0.08715916,0.049848557,-0.017256944,0.004886922,-0.049480084,1.0,0.0,0.0,0.0,244723436813793
0.0,0.0,0.0,-0.020463986,0.01282817,-0.046120327,0.42590138,-0.7222633,0.49008277,-0.2382494,244723456763896
-0.049689114,0.064736366,0.110132694,-0.020922136,0.020158553,-0.04016439,0.42555887,-0.7224954,0.48993173,-0.23846796,244723476706370
-0.017387211,0.043639183,0.113438606,0.0,0.0,0.0,1.0,0.0,0.0,0.0,244723496656476
-0.012165666,0.13847828,0.075512886,-0.04932737,0.0346666,-0.013744468,0.42460054,-0.7228953,0.49006212,-0.23869623,244723516614210
-0.034648597,0.15123081,0.091361046,-0.08353582,0.059253927,0.009162978,0.4237193,-0.723065,0.49059018,-0.2386634,244723536564313
-0.07771611,0.037436485,0.11064339,-0.112399206,0.07742717,0.028099801,0.42257234,-0.72321296,0.49141935,-0.23854274,244723556506787
-0.08827698,-0.034480095,0.072434425,0.0,0.0,0.0,0.42150065,-0.7232892,0.4922922,-0.2384081,244723576426376
-0.09123117,-0.060609818,0.0660553,-0.0842994,0.08353582,0.03359759,0.42059243,-0.7232646,0.49308082,-0.2384571,244723596323075
-0.050485253,-0.10416889,0.05596161,-0.058184914,0.089949906,0.023365596,0.41980645,-0.7231684,0.49375796,-0.23873262,244723616242664
0.0,0.0,0.0,-0.041691553,0.09086621,0.01160644,1.0,0.0,0.0,0.0,244723636185138
-0.027285874,-0.06736851,0.059517384,-0.030695979,0.09285152,0.0065668016,0.41846076,-0.72292864,0.49480328,-0.23965485,244723656158131
0.0,0.0,0.0,0.0,0.0,0.0,0.41789666,-0.7227648,0.4952329,-0.24024558,244723676161639
0.0034978986,0.08363724,-0.053087234,-0.005955936,0.099571034,0.00061086525,0.41736558,-0.7225543,0.49565604,-0.24092807,244723696134630
-0.006335497,0.08176994,-0.051258564,-0.0035124752,0.11560625,0.0010690142,0.41676316,-0.7222837,0.49616054,-0.2417426,244723716077104
0.0,0.0,0.0,0.0,0.0,0.0,0.41608796,-0.72200245,0.4967041,-0.24262832,244723736028306
-0.026738763,0.1313324,-0.018007755,-0.0010690142,0.14446963,-0.0038179078,1.0,0.0,0.0,0.0,244723755987319
-0.037938416,0.20212173,0.015550137,0.0,0.0,0.0,1.0,0.0,0.0,0.0,244723775915814
-0.03887528,0.22012901,0.040320396,-0.04352415,0.182496,-0.012980887,1.0,0.0,0.0,0.0,244723795813789
-0.06494683,0.31517315,0.07191658,-0.045814894,0.20570888,-0.014202617,0.41168046,-0.7209757,0.49958736,-0.24723639,244723815734654
-0.005737424,0.33442688,0.108300686,-0.033292156,0.22495113,0.0,1.0,0.0,0.0,0.0,244723835678407
0.0,0.0,0.0,-0.0355829,0.2359467,0.02397646,0.40894207,-0.7199758,0.50183415,-0.25012767,244723855645050
0.0,0.0,0.0,-0.06047566,0.23441954,0.044745877,0.40743417,-0.71940583,0.50328016,-0.25132003,244723875634582
0.17647755,0.08793163,0.04225874,-0.091477074,0.226631,0.050701816,1.0,0.0,0.0,0.0,244723895608854
0.18289888,-0.08869362,-0.001074791,-0.11957687,0.21227567,0.037873644,1.0,0.0,0.0,0.0,244723915567866
0.17713866,-0.2205267,-0.018683434,-0.1423316,0.18402316,0.011453724,0.40195096,-0.7188109,0.50738424,-0.25358948,244723935519249
0.15406841,-0.29527092,-0.045300484,-0.14645495,0.15103643,-0.022907447,1.0,0.0,0.0,0.0,244723955463001
0.106104255,-0.30532837,-0.03659773,-0.12797627,0.12293663,-0.06154467,0.39838424,-0.7196853,0.508507,-0.25448722,244723975383866
0.0,0.0,0.0,-0.085673854,0.09621128,-0.09040806,1.0,0.0,0.0,0.0,244723995281842
0.0479092,-0.2018795,-0.10750008,-0.022449298,0.08017606,-0.10308351,0.39626178,-0.720669,0.5080204,-0.25598457,244724015210337
0.0,0.0,0.0,0.04428773,0.076358154,-0.10247265,1.0,0.0,0.0,0.0,244724035169350
-0.015987098,0.10211754,-0.06734419,0.08628472,0.076358154,-0.08506299,1.0,0.0,0.0,0.0,244724055120732
-0.016113043,0.10826397,-0.10648203,0.11377365,0.083383106,-0.05421429,0.3962725,-0.7202881,0.5065641,-0.2598964,244724075064485
0.010599181,0.22706509,-0.08543491,0.1255328,0.0926988,-0.015271631,1.0,0.0,0.0,0.0,244724095038759
0.0,0.0,0.0,0.10338894,0.10842858,0.02443461,0.39693478,-0.718781,0.5068674,-0.2624539,244724115043548
0.04525274,0.27566338,-0.07489109,0.0,0.0,0.0,0.39692256,-0.71794665,0.5075884,-0.26336148,244724135017820
0.04706125,0.19432068,-0.06984043,0.0,0.0,0.0,0.39661345,-0.7171838,0.5085756,-0.26399985,244724154961572
0.0,0.0,0.0,-0.01160644,0.1207986,0.08597928,0.39611566,-0.71648574,0.5097199,-0.26443583,244724174912958
-0.015218526,0.1245842,-0.03657627,-0.033750303,0.11209377,0.08857546,1.0,0.0,0.0,0.0,244724194871970
-0.043666154,0.11930847,-0.024830341,-0.05375614,0.09789115,0.08536842,0.39485484,-0.71541023,0.5120351,-0.26476026,244724214823353
-0.064918995,0.08502197,-0.077180386,-0.06383542,0.08246681,0.07742717,0.39416775,-0.71506464,0.5130832,-0.26468825,244724234767105
-0.056506664,0.04558468,-0.11225748,-0.066737026,0.070554934,0.0711658,0.39351505,-0.71478873,0.5140445,-0.2645397,244724254710859
-0.08749175,0.06846237,-0.15130424,-0.07345655,0.070249505,0.06261369,0.3927889,-0.7145809,0.514963,-0.2643942,244724274654612
-0.14058435,0.08542538,-0.13955927,0.0,0.0,0.0,0.39193717,-0.71439916,0.5159545,-0.26421604,244724294605997
-0.21132839,0.20990944,-0.06371498,0.0,0.0,0.0,0.39009982,-0.7142558,0.51789826,-0.26351875,244724334516392
0.0,0.0,0.0,-0.09666943,0.032528576,0.043218717,1.0,0.0,0.0,0.0,244724354460144
-0.107265174,0.17168903,-0.007654667,-0.06612616,0.0076358155,0.019394971,0.38891056,-0.7144806,0.51890725,-0.2626811,244724374403899
0.011069328,0.16167307,-0.06524563,-0.03145956,-0.0143553335,-0.008857546,0.3887533,-0.7147007,0.51884013,-0.26244774,244724394347652
0.06717262,0.21844006,-0.05047369,-0.009010263,-0.014966198,-0.02397646,1.0,0.0,0.0,0.0,244724414268517
0.09006891,0.31357765,-0.05217552,0.0,0.0,0.0,0.3884283,-0.715228,0.5184879,-0.26218814,244724434166492
0.0,0.0,0.0,-0.10277808,-0.016646078,-0.013133603,0.3876836,-0.7157772,0.5186061,-0.26155695,244724454117877
0.0,0.0,0.0,-0.14019357,-0.0035124752,0.0053450707,0.38665694,-0.71633255,0.5190031,-0.26076815,244724474122666
0.12197882,0.15339613,-0.0639267,-0.16157386,0.009315695,0.039095376,1.0,0.0,0.0,0.0,244724494096938
0.0,0.0,0.0,-0.16218472,0.034208454,0.12370021,0.3833105,-0.7168214,0.5223716,-0.2576201,244724533992076
0.0,0.0,0.0,-0.122783914,0.04505131,0.14569137,0.3825952,-0.71638477,0.5239164,-0.2567595,244724553951089
-0.008194655,-0.006257057,0.035606384,-0.09773844,0.052381694,0.15241088,0.38203788,-0.71580756,0.52545315,-0.25605774,244724573902471
0.0,0.0,0.0,-0.07452556,0.049938235,0.14523321,0.38163435,-0.7151892,0.5268664,-0.2554827,244724593846223
-0.0020975769,-0.081861496,0.012079716,0.0,0.0,0.0,0.38145867,-0.7145677,0.528056,-0.25502783,244724613767090
0.011009753,0.02980566,-0.017621994,0.0,0.0,0.0,0.38140675,-0.7139748,0.5290386,-0.2547295,244724633665065
-0.015324563,0.08777523,0.05630827,0.0,0.0,0.0,0.3813516,-0.71343964,0.5299235,-0.25447214,244724653616448
-0.029506564,0.029108524,0.09075165,-0.019547688,0.031154128,0.09514226,0.38128752,-0.71293104,0.5307694,-0.25423026,244724673621238
-0.017481089,-0.039017677,0.07352686,-0.00045814895,0.016646078,0.08674286,0.38143477,-0.7124288,0.5314401,-0.254016,244724693595510
0.0,0.0,0.0,0.02443461,0.01282817,0.07666359,0.3817672,-0.71189123,0.5319519,-0.2539523,244724713539262
0.0,0.0,0.0,0.039095376,0.011911872,0.06627888,1.0,0.0,0.0,0.0,244724733483017
-0.06974143,-0.06562233,0.080668926,0.0,0.0,0.0,0.38271216,-0.7108414,0.53259826,-0.2541162,244724753426770
-0.10517934,0.0026664734,0.07128,0.0,0.0,0.0,1.0,0.0,0.0,0.0,244724773378155
-0.12640399,0.010484695,0.048190594,0.052687127,-0.017104227,0.04352415,0.3839153,-0.7099669,0.53287,-0.25417632,244724793337168
-0.13294071,0.060774326,0.031371593,0.04428773,-0.02855795,0.035888333,1.0,0.0,0.0,0.0,244724813288550
-0.15533707,0.090465546,-0.018107414,0.040927973,-0.03390302,0.028863383,1.0,0.0,0.0,0.0,244724833232302
0.0,0.0,0.0,0.032986723,-0.038026363,0.022296581,1.0,0.0,0.0,0.0,244724853176056
-0.16253692,0.05846834,0.028949738,0.024281893,-0.049480084,0.007483099,0.38597783,-0.70931554,0.5326158,-0.2534031,244724873119809
-0.1231485,0.09924698,0.01249218,0.02733622,-0.068264194,-0.017715093,0.38650364,-0.70948005,0.5321494,-0.25312066,244724893071194
-0.06667453,0.13827324,-0.04356146,0.023060163,-0.08368854,-0.03940081,0.38701853,-0.7098278,0.5314708,-0.25278464,244724913030207
-0.026477575,0.06839371,-0.032812595,0.018020526,-0.078343466,-0.04841107,0.38742766,-0.7102324,0.5307649,-0.2525045,244724933012108
-0.022109032,0.09948444,0.013560295,0.014660766,-0.071318515,-0.045814894,0.38778466,-0.71060264,0.5301233,-0.25226226,244724953016898
0.052782357,0.13618088,0.026589394,0.0012217305,-0.060322944,-0.028710667,1.0,0.0,0.0,0.0,244724972968281
0.073803484,0.09366512,0.038054466,-0.021380283,-0.029168816,0.0018325958,1.0,0.0,0.0,0.0,244724992866256
0.06537205,-0.035438538,0.05454588,-0.03726278,-0.0012217305,0.034055736,0.38784492,-0.7110067,0.52999806,-0.25129247,244725012764233
0.07324028,-0.07752991,0.089244366,-0.039858956,0.018020526,0.06566802,0.3876312,-0.7107536,0.53064483,-0.25097302,244725032662208
0.053368032,-0.11371422,0.088085175,-0.02855795,0.0290161,0.09040806,0.38750467,-0.7102957,0.53148144,-0.25069454,244725052605962
0.0,0.0,0.0,0.005192355,0.035277467,0.10323623,0.38762894,-0.70962465,0.5323414,-0.2505781,244725072595492
-0.0017338991,-0.063676834,0.0343256,0.0,0.0,0.0,1.0,0.0,0.0,0.0,244725092569766
-0.057655692,-0.047492027,-0.014223576,0.0,0.0,0.0,1.0,0.0,0.0,0.0,244725112528778
-0.049868166,-0.08454418,-0.050317764,0.10415252,0.016493361,0.071776666,1.0,0.0,0.0,0.0,244725132480161
-0.052398145,0.036870956,-0.049243927,0.0,0.0,0.0,1.0,0.0,0.0,0.0,244725152423913
-0.056533694,0.10013056,-0.043216705,0.0,0.0,0.0,0.39172173,-0.7055151,0.533825,-0.252653,244725172367668
-0.07457495,0.042432785,-0.011757374,0.0,0.0,0.0,0.39301085,-0.7049721,0.5333528,-0.25316325,244725192311420
0.0,0.0,0.0,0.0,0.0,0.0,0.39441448,-0.70454067,0.5326623,-0.25363463,244725212262806
0.0,0.0,0.0,0.16523905,-0.06566802,-0.018325957,1.0,0.0,0.0,0.0,244725232221818
