timestamp,accel_x,accel_y,accel_z,gyro_x,gyro_y,gyro_z,rot_w,rot_x,rot_y,rot_z
245336020000000,0.096188545,-0.09577823,-0.015609086,-0.005497787,-0.0021380284,0.005955936,0.7278196,-0.0837506,0.6758159,-0.08085396
245336040000000,0.0,0.0,0.0,0.0056505036,0.0015271631,0.0041233404,0.727818,-0.08367933,0.67582446,-0.0808705
245336060000000,0.080841064,-0.1343267,-0.02676183,0.019700404,0.002443461,-0.0015271631,0.72781587,-0.083524294,0.67582464,-0.081048355
245336080000000,0.0925684,-0.115676165,-0.006775439,0.028863383,0.0015271631,-0.009773844,1.0,0.0,0.0,0.0
245336100000000,0.058457375,0.0013635159,0.08534348,0.02367103,-0.0032070426,-0.015118915,0.72786105,-0.08329857,0.67573416,-0.08162747
245336120000000,-0.022845268,0.05799365,0.09183031,-0.0035124752,-0.0106901415,-0.019242255,0.72792065,-0.08346896,0.6756364,-0.08173059
245336140000000,0.01348114,-0.012709856,0.065423846,-0.02367103,-0.029626964,-0.01863139,1.0,0.0,0.0,0.0
245336160000000,0.06593132,-0.05321455,0.060528874,0.04337143,-0.012217305,-0.014813482,0.7283067,-0.0839051,0.6751584,-0.08179611
245336180000000,0.042915344,0.06256294,-0.027798176,0.049021937,-0.008857546,-0.01695151,0.7284894,-0.083348855,0.6749147,-0.0827423
245336200000000,0.046669006,0.06102276,-0.02413088,0.04230242,-0.009162978,-0.020005837,0.72856313,-0.083139166,0.67480254,-0.08321756
245336220000000,0.0010061264,0.08734441,-0.041163266,0.043066,-0.01282817,-0.01572978,0.72867227,-0.08293724,0.6746614,-0.08360781
245336240000000,0.03513241,0.071653605,-0.04315442,0.036651913,-0.020616703,-0.008399397,0.72883743,-0.082716815,0.67447174,-0.083916254
245336260000000,0.07877159,0.0510931,-0.0540545,0.03894266,-0.019700404,-0.006414085,0.72900426,-0.08249603,0.6742832,-0.084198914
245336280000000,0.0942049,-0.0029277802,-0.06869137,0.05421429,-0.007483099,-0.004886922,0.72909147,-0.08213086,0.67418236,-0.08460685
245336300000000,0.10081291,0.0070996284,-0.06113696,0.06811147,0.001985312,-0.0022907446,0.72912735,-0.08163631,0.6741422,-0.08509533
245336320000000,0.062662125,0.03305459,-0.05785793,0.06887506,0.0013744468,0.0,0.72916836,-0.081093155,0.6740996,-0.085598506
245336340000000,0.038015366,0.008619547,-0.0866043,0.060628377,-0.0047342055,-0.0012217305,0.729249,-0.08066607,0.67401135,-0.08600976
245336360000000,0.080495834,-0.025720596,-0.1305502,0.048563786,-0.010842858,-0.0062613687,0.72935736,-0.080350585,0.67388266,-0.0863937
245336380000000,0.023384094,-0.029706001,-0.15786505,0.035277467,-0.0065668016,-0.01450805,0.72941035,-0.08021303,0.6737986,-0.086728774
245336400000000,0.01809311,-0.011637688,-0.1432364,0.028863383,-0.009468411,-0.021380283,0.7294666,-0.080141574,0.6736985,-0.08709832
245336420000000,0.06568718,0.0011122227,-0.15077913,0.032223143,-0.007788532,-0.027947085,0.72952265,-0.08010656,0.6735885,-0.08751148
245336440000000,0.081715584,0.05216098,-0.15729094,0.03436117,-0.00015271631,-0.03390302,0.7295122,-0.08004661,0.673538,-0.08803989
245336460000000,0.07227898,0.09034705,-0.13636804,0.036957346,0.0070249503,-0.033292156,0.72945756,-0.07998923,0.6735386,-0.08853873
245336480000000,0.06737995,0.13214135,-0.112252414,0.037110064,0.00992656,-0.026725354,0.72939277,-0.079860866,0.67356145,-0.08901447
245336500000000,0.07832432,0.16707706,-0.086764336,0.04642576,0.015577064,-0.019089539,0.72930974,-0.07962567,0.67361826,-0.08947328
245336520000000,0.07857418,0.15951133,-0.06939572,0.047494773,0.021533,-0.012675454,0.729187,-0.07929966,0.6737276,-0.0899388
245336540000000,0.090078354,0.1573236,-0.048556328,0.040775254,0.03145956,-0.0067195175,0.72899884,-0.07901725,0.673919,-0.09027874
245336560000000,0.0634222,0.09451485,-0.038163364,0.036651913,0.04062254,0.0021380284,0.72875106,-0.07868228,0.6741898,-0.09054868
245336580000000,0.07026482,0.035579443,-0.0025368333,0.04230242,0.04046982,0.012675454,0.7285243,-0.078248486,0.67445546,-0.09077003
245336600000000,0.051861763,-0.0074579716,-0.0011050105,0.04627304,0.040775254,0.019394971,0.7283078,-0.07772032,0.67472064,-0.09099123
245336620000000,0.032521248,-0.029647827,-0.01144892,0.04230242,0.040011674,0.022907447,0.7280954,-0.0772192,0.6749875,-0.09113828
245336680000000,-0.0026407242,-0.09528422,0.06871134,0.089186326,0.038789943,0.022602014,0.72755235,-0.075131536,0.67567265,-0.09213798
245336700000000,-0.018263817,-0.07999635,0.08160055,0.09101892,0.034972034,0.017715093,0.7274037,-0.074312754,0.67585087,-0.09266699
245336720000000,-0.020462036,-0.08367801,0.10280877,0.086437434,0.025961773,0.010842858,0.72730976,-0.073587984,0.6759573,-0.093204744
245336740000000,0.020441055,-0.08435202,0.081088305,0.093004234,0.01786781,0.0036651916,0.7272724,-0.072884575,0.67598826,-0.09382258
245336760000000,0.0045404434,-0.029106617,0.07553905,0.11056661,0.01160644,-0.0032070426,0.7272758,-0.0720532,0.675958,-0.09465314
245336780000000,-0.007027626,0.0067391396,0.05649984,0.11927144,0.005955936,-0.007483099,0.7273192,-0.071220085,0.6758761,-0.09553086
245336800000000,0.04859352,0.040293932,-0.006312549,0.107665,-0.0053450707,-0.009773844,0.7274277,-0.07047933,0.6757196,-0.09635661
245336820000000,0.06739044,0.03165078,-0.05519277,0.09025534,-0.0041233404,-0.014660766,0.72750825,-0.06994347,0.6755878,-0.097061045
245336840000000,0.07503319,0.042678356,-0.043530285,0.08827003,-0.0053450707,-0.011301007,0.727587,-0.069363065,0.675462,-0.09776093
245336860000000,0.083114624,0.08498645,-0.103818,0.09193522,-0.0025961774,-0.008857546,0.7276657,-0.06875016,0.67534107,-0.09844088
245336880000000,0.04552746,0.087049484,-0.13917172,0.08903361,0.009315695,-0.0096211275,0.7276439,-0.06813584,0.675325,-0.09913704
245336900000000,0.008152008,0.038760662,-0.06673843,0.091477074,0.010079277,-0.0010690142,0.72763115,-0.06747268,0.67531323,-0.09976165
245336920000000,0.036520958,0.029728174,-0.056281567,0.10399981,0.0067195175,0.011759156,0.72766936,-0.066582955,0.6752643,-0.10041044
245336940000000,0.06799793,0.06660652,-0.05851227,0.10125092,0.01038471,0.012980887,0.72768265,-0.06573412,0.67524433,-0.10100617
245336960000000,0.05935669,0.044601202,-0.063340425,0.08200866,0.011148291,0.007483099,0.72765744,-0.06504677,0.6752569,-0.10154698
245336980000000,0.054047585,0.041561127,-0.040448904,0.068264194,0.0067195175,0.002443461,0.7276623,-0.06454446,0.67523414,-0.10198253
245337000000000,0.045654297,0.053620815,-0.06000942,0.06154467,0.0038179078,-0.0027488936,0.7276711,-0.06409906,0.6751985,-0.102435455
245337020000000,-0.0010881424,0.052968502,-0.043859303,0.056352317,-0.00015271631,-0.0071776668,0.7276998,-0.06374486,0.67513543,-0.10286729
245337040000000,0.014019966,0.05408311,-0.07036668,0.055588737,-0.001985312,-0.006872234,0.72774214,-0.06336671,0.67505807,-0.103308946
245337060000000,0.0172472,0.07497287,-0.06381732,0.04841107,-0.004276057,-0.0025961774,0.7277961,-0.06303364,0.6749789,-0.1036492
245337080000000,0.041950226,0.08781886,-0.063800275,0.03268129,-0.014202617,0.00030543262,0.7279173,-0.06279696,0.6748376,-0.10386167
245337100000000,0.061735153,0.07724595,-0.094679475,0.014202617,-0.013133603,-0.0035124752,0.7280123,-0.0627388,0.6747248,-0.103962936
245337160000000,0.008101463,0.09384823,-0.08764076,0.0067195175,-0.016493361,-0.012675454,0.7282922,-0.06291956,0.67435753,-0.10427662
245337180000000,0.0077905655,0.11111307,-0.090185225,0.0030543262,-0.015882496,-0.010995574,0.72838545,-0.062980175,0.6742376,-0.10436365
245337200000000,0.01361084,0.119182825,-0.06949866,-0.011759156,-0.018784106,-0.01160644,0.72848934,-0.06314503,0.6741101,-0.10436258
245337220000000,0.05190754,0.09730005,-0.09878701,-0.029474247,-0.020005837,-0.013744468,0.72859126,-0.06347595,0.6739878,-0.10424074
245337240000000,0.104364395,0.10082269,-0.12134659,-0.046120327,-0.01786781,-0.01786781,0.7286598,-0.06394542,0.6738976,-0.10405731
245337260000000,0.09313011,0.06565094,-0.09727514,-0.046578474,-0.008246681,-0.01786781,0.72866464,-0.064426534,0.67387724,-0.10385843
245337280000000,0.045373917,0.060402393,-0.07865322,-0.018020526,0.0010690142,-0.006872234,0.7286277,-0.06457031,0.6739092,-0.10382119
245337300000000,0.044013977,0.10994768,-0.08355147,0.0,0.0,0.0,0.72864896,-0.064387,0.6739083,-0.10379142
245337320000000,0.083278656,0.11121297,-0.11778712,0.00076358154,0.001985312,0.02397646,0.72866464,-0.06417286,0.67393494,-0.10364143
245337340000000,0.03917408,0.07529855,-0.086465836,-0.025045475,0.013133603,0.025350908,0.72857964,-0.064180836,0.6740816,-0.103279166
245337360000000,0.012359619,0.01911521,-0.040133655,-0.03176499,0.013439035,0.030848695,0.7284895,-0.06418149,0.6742432,-0.10285902
245337380000000,0.03729248,-0.03428626,0.005376458,-0.025809057,0.007330383,0.033750303,0.72846633,-0.06413251,0.67433554,-0.1024474
245337400000000,0.07207775,-0.049222946,0.018382132,-0.02107485,0.00870483,0.030695979,0.7284264,-0.06404281,0.6744361,-0.10212505
245337420000000,0.10730171,-0.065594435,0.0071164966,-0.015882496,0.00992656,0.025961773,0.7283753,-0.06397992,0.67453945,-0.10184577
245337440000000,0.11340618,-0.050321817,0.015731871,-0.008552114,0.012370021,0.02076942,0.7283086,-0.063865185,0.67464733,-0.10168046
245337460000000,0.051781654,-0.022582531,0.030026376,-0.0106901415,0.014202617,0.01863139,0.7282217,-0.06380381,0.67477506,-0.1014935
245337480000000,0.085009575,-0.06495023,0.028124452,-0.01450805,0.003970624,0.021380283,0.72821474,-0.0637498,0.6748224,-0.10126224
245337500000000,0.10516167,-0.106339216,0.052951574,-0.0067195175,0.0070249503,0.02397646,0.72819364,-0.06363864,0.6748877,-0.10104813
245337520000000,0.108695984,-0.14390182,0.05809927,0.012675454,0.0062613687,0.01572978,0.7281718,-0.06339891,0.6749304,-0.10107091
245337540000000,0.094332695,-0.13148928,0.046577394,0.01863139,0.004428773,0.00045814895,0.72815776,-0.06326133,0.6749357,-0.10122327
245337560000000,0.060121536,-0.120826244,0.018630028,0.016187929,-0.001985312,-0.008857546,0.7281703,-0.06321012,0.67489684,-0.10142453
245337580000000,0.07520294,-0.11485553,0.004791856,0.01740966,-0.013439035,-0.012675454,0.7282646,-0.06319505,0.67476493,-0.10163397
245337600000000,0.10309982,-0.085433245,-0.011162937,0.016340645,-0.019089539,-0.01786781,0.7283903,-0.063189305,0.67458904,-0.10190349
245337620000000,0.12033272,-0.062371016,-0.03719282,0.01038471,-0.010995574,-0.021685716,0.72845036,-0.063281946,0.674481,-0.10213149
245337640000000,0.100735664,-0.018865347,-0.060127974,0.0076358155,-0.0009162979,-0.024129177,0.7284293,-0.06337904,0.67445767,-0.10237564
245337660000000,0.057962418,0.0008773804,-0.05741626,0.0,0.0,0.0,0.7283876,-0.06346096,0.6744581,-0.10261832
245337680000000,0.056031227,0.036582947,-0.07391715,0.00870483,-0.001985312,-0.019700404,0.7283819,-0.06349427,0.67442554,-0.10285251
245337700000000,0.062402725,0.062192917,-0.100034595,0.00030543262,-0.00290161,-0.01740966,0.72838503,-0.06361293,0.67439264,-0.1029725
245337720000000,0.020877838,0.06998205,-0.08129448,-0.006872234,0.0036651916,-0.017104227,0.7283314,-0.06376633,0.6744228,-0.10305898
245337740000000,-0.0022830963,0.09414911,-0.04367739,-0.009162978,-0.0,-0.0125227375,0.7283064,-0.06391085,0.6744325,-0.10308283
245337760000000,0.03317356,0.13914442,-0.04539442,-0.010537425,-0.00030543262,-0.0071776668,0.72830194,-0.06400989,0.6744301,-0.10306886
245337780000000,0.010819435,0.13861108,-0.06726909,-0.020463986,0.005192355,-0.010842858,0.7282387,-0.064219356,0.6744881,-0.1030057
245337800000000,0.0,0.0,0.0,-0.030085113,0.0025961774,-0.008857546,0.72818714,-0.06448189,0.6745393,-0.10287078
245337820000000,-0.020475388,0.1856463,-0.0067253113,-0.034208454,-0.007483099,-0.002443461,0.7282227,-0.064744085,0.6745116,-0.10263533
245337840000000,0.0047893524,0.18808007,0.004826069,-0.044745877,-0.012064588,0.0016798794,0.7282836,-0.065044105,0.6744653,-0.10231776
245337860000000,0.040380478,0.14200687,0.014167607,0.0,0.0,0.0,0.72835255,-0.06546269,0.67441714,-0.1018764
245337880000000,0.038230896,0.10642862,-0.0021691918,-0.06383542,-0.016187929,0.008246681,0.7284258,-0.06586455,0.6743717,-0.10139337
245337900000000,0.048618317,0.07057643,-0.01282531,-0.06078109,-0.016035212,0.012675454,0.7285135,-0.06623215,0.6743187,-0.10087468
245337920000000,0.051912308,0.034190893,-0.027976692,0.0,0.0,0.0,0.72857034,-0.066503175,0.67430043,-0.1004075
245337960000000,0.0,0.0,0.0,-0.03604105,-0.0053450707,0.02443461,0.7286515,-0.06678508,0.6743122,-0.099548444
245337980000000,0.06867695,-0.019823313,-0.05000788,-0.033444874,-0.002443461,0.02733622,0.7286718,-0.0668389,0.674347,-0.09912719
245338000000000,0.0,0.0,0.0,0.0,0.0,0.0,0.7286641,-0.06688945,0.6744087,-0.09872902
245338040000000,0.044947624,-0.09803653,0.014057517,0.0,0.0,0.0,1.0,0.0,0.0,0.0
245338060000000,0.038884163,-0.076085806,0.02308011,0.0,0.0,0.0,0.72860724,-0.06702988,0.67457366,-0.09792337
245338080000000,0.05771637,-0.076271534,0.02292341,-0.01450805,-0.00580322,0.008246681,0.7286498,-0.06708202,0.6745435,-0.09777804
245338100000000,0.051244736,-0.06552601,0.020952523,-0.009468411,-0.00580322,0.002443461,0.7286909,-0.06714695,0.6745041,-0.097699314
245338120000000,0.024983406,-0.05392909,0.009105265,0.0010690142,-0.0015271631,-0.0030543262,0.7286962,-0.06714692,0.6744895,-0.09776022
245338140000000,0.026537895,0.01590252,-0.02193892,0.0067195175,-0.0013744468,-0.0035124752,0.7287025,-0.067120574,0.67447376,-0.097840495
245338160000000,0.023370743,0.041236162,-0.03212601,0.007941248,-0.0021380284,-0.00045814895,0.7287247,-0.06703983,0.67444575,-0.09792328
245338180000000,0.068255424,0.026438713,-0.002396822,0.014813482,0.0018325958,0.0035124752,0.7287238,-0.06690398,0.67444974,-0.09799515
245338200000000,0.0916729,0.06305027,-0.003157854,0.026572637,0.0030543262,0.0071776668,0.7287308,-0.06662498,0.6744464,-0.09815586
245338220000000,0.0,0.0,0.0,0.023823744,0.008399397,0.0067195175,0.7286964,-0.06638588,0.6744897,-0.09827593
245338240000000,0.059171677,0.06118393,-0.032904208,0.013286319,0.004581489,0.007330383,0.72867686,-0.066229135,0.67451906,-0.09832504
245338260000000,0.06392956,0.06136179,-0.012872219,0.010537425,-0.0018325958,0.010079277,0.72871184,-0.066088304,0.6744971,-0.098311044
245338280000000,0.0815115,0.047472477,-0.03665948,0.007330383,-0.0018325958,0.0070249503,0.72873944,-0.06597051,0.67447734,-0.09832138
245338300000000,0.08984661,0.04552865,-0.075372696,-0.008093964,0.00061086525,0.0012217305,0.7287276,-0.06602645,0.6744943,-0.09825492
245338320000000,0.0,0.0,0.0,0.0,0.0,0.0,0.7287356,-0.066215664,0.6744841,-0.0981383
245338340000000,0.0,0.0,0.0,-0.028099801,-0.009468411,-0.004428773,1.0,0.0,0.0,0.0
245338380000000,0.0,0.0,0.0,-0.025809057,-0.004886922,-0.0076358155,0.72879076,-0.066939384,0.67440796,-0.09776034
