timestamp,accel_x,accel_y,accel_z,gyro_x,gyro_y,gyro_z,rot_w,rot_x,rot_y,rot_z
245323720000000,0.0,0.0,0.0,0.10629055,-0.08964448,-0.23732115,1.0,0.0,0.0,0.0
245323740000000,0.0,0.0,0.0,0.0,0.0,0.0,0.7279151,-0.09162224,0.6739586,-0.0867462
245323760000000,-0.04061222,0.20898008,-0.34175044,0.11804971,-0.077121735,-0.24419338,0.7282925,-0.092294015,0.6731066,-0.089439444
245323780000000,-0.06925869,0.27826452,-0.3048305,0.117744274,-0.07162395,-0.24174993,1.0,0.0,0.0,0.0
245323800000000,-0.019936562,0.35154486,-0.3133409,0.1244638,-0.070554934,-0.23365596,0.72899264,-0.09366734,0.6714578,-0.09455522
245323820000000,-0.015249252,0.41911483,-0.37003773,0.12156218,-0.063224554,-0.22449298,0.72931004,-0.094324,0.67068297,-0.096924365
245323840000000,-0.041669846,0.48181248,-0.39874983,0.10277808,-0.057726767,-0.21227567,0.7295335,-0.09484394,0.67001885,-0.09929866
245323860000000,-0.08289337,0.5216174,-0.38048387,0.084146686,-0.05971208,-0.19165897,0.72980714,-0.09555409,0.66934264,-0.10115116
245323880000000,-0.055397034,0.5713279,-0.39576918,0.06719518,-0.05421429,-0.16707164,1.0,0.0,0.0,0.0
245323900000000,-0.06949711,0.6120062,-0.3877571,0.0,0.0,0.0,0.7301942,-0.09661942,0.668312,-0.10411649
245323920000000,-0.08478451,0.633183,-0.37103343,0.03283401,-0.037873644,-0.10399981,0.7303383,-0.09703331,0.66795284,-0.10502229
245323940000000,-0.061704636,0.66444707,-0.40570933,0.017562376,-0.03283401,-0.071318515,1.0,0.0,0.0,0.0
245323960000000,-0.04967022,0.65987206,-0.38429457,-0.00290161,-0.025350908,-0.042455133,0.73054725,-0.09743602,0.6675131,-0.105987266
245323980000000,-0.045057297,0.6321144,-0.3552946,-0.020005837,-0.018325957,-0.014813482,0.7306185,-0.09767151,0.66741776,-0.10587941
245324000000000,-0.03795719,0.61143637,-0.34081388,-0.028405234,-0.010231993,0.010231993,1.0,0.0,0.0,0.0
245324020000000,-0.023566246,0.59527254,-0.26582897,0.0,0.0,0.0,1.0,0.0,0.0,0.0
245324040000000,-0.00090789795,0.56726646,-0.2715639,-0.027794369,0.0036651916,0.07345655,0.730704,-0.09719673,0.6676177,-0.10445626
245324060000000,0.001914978,0.50247335,-0.2655716,-0.037873644,0.01863139,0.0983493,0.7306377,-0.09677561,0.6679048,-0.10347062
245324080000000,-0.02628994,0.435004,-0.22246122,-0.038179077,0.02855795,0.12583824,0.73052394,-0.0961305,0.6682959,-0.10234419
245324100000000,0.0041923523,0.36563754,-0.17861295,-0.024892759,0.03313944,0.15470162,0.7304398,-0.09522498,0.66871274,-0.101060905
245324120000000,0.015735626,0.3342266,-0.16374665,-0.0106901415,0.041233405,0.18142697,1.0,0.0,0.0,0.0
245324140000000,0.036790848,0.27361465,-0.16686624,-0.0022907446,0.044745877,0.20479257,0.7302188,-0.09249666,0.669742,-0.09833889
245324160000000,0.07778263,0.20145392,-0.14491838,-0.00580322,0.044898596,0.22250767,0.7301203,-0.09090313,0.67029035,-0.096808665
245324180000000,0.0,0.0,0.0,0.0,0.0,0.0,0.73001134,-0.08941794,0.6708639,-0.09502376
245324200000000,0.07775974,0.070096254,-0.08091462,-0.030390546,0.047800206,0.23762658,0.7298607,-0.08785127,0.67147505,-0.09331
245324220000000,0.0,0.0,0.0,-0.034208454,0.046120327,0.24205536,0.72974545,-0.086449005,0.6720506,-0.09135733
245324240000000,0.11391926,-0.0904119,-0.0555287,-0.036957346,0.040927973,0.24312437,1.0,0.0,0.0,0.0
245324260000000,0.0,0.0,0.0,-0.041080687,0.0355829,0.23823744,0.72957987,-0.083570495,0.673099,-0.0875614
245324280000000,0.14192581,-0.21484709,-0.033132136,0.0,0.0,0.0,0.7295407,-0.08220569,0.67353845,-0.08578259
245324300000000,0.1710825,-0.2615025,-0.05390489,-0.04337143,0.024129177,0.2098322,0.7295231,-0.08110713,0.67391527,-0.084000036
245324320000000,0.12402153,-0.33549762,-0.07079071,-0.049785517,0.020616703,0.18463401,0.72947806,-0.080090106,0.6742673,-0.08252845
245324340000000,0.10492325,-0.39987183,-0.043376863,0.0,0.0,0.0,0.7294427,-0.07940754,0.67455786,-0.081113786
245324360000000,0.09102821,-0.4102745,-0.058105946,-0.038179077,0.014660766,0.12644911,0.7293973,-0.07873335,0.6748039,-0.08012776
245324380000000,0.0,0.0,0.0,-0.034208454,0.014660766,0.09117164,0.7293406,-0.07838637,0.6750051,-0.0792851
245324400000000,0.03041935,-0.45224977,-0.03748107,-0.029474247,0.016493361,0.05513059,0.7292257,-0.07809378,0.6752064,-0.07891504
245324420000000,0.0457201,-0.44088292,-0.074242175,0.0,0.0,0.0,0.729124,-0.07813139,0.6753407,-0.0786685
245324440000000,0.03444767,-0.40119386,-0.060967386,0.0,0.0,0.0,0.7289855,-0.07829037,0.67545444,-0.07881674
245324460000000,0.029846191,-0.40078187,-0.013703048,-0.021227567,0.01450805,-0.045814894,1.0,0.0,0.0,0.0
245324480000000,0.039385796,-0.36966157,0.03410709,0.0021380284,0.015577064,-0.07070765,0.728665,-0.07918446,0.6755928,-0.079696536
245324500000000,0.00083065033,-0.27971053,0.038807333,0.022296581,0.01786781,-0.09117164,0.728488,-0.0796259,0.67563,-0.08055528
245324520000000,0.010812759,-0.1822455,0.04171443,0.026725354,0.005955936,-0.10842858,0.72837293,-0.08009347,0.6755694,-0.081632994
245324540000000,0.097537994,-0.108622074,0.05273789,0.019089539,-0.0106901415,-0.12583824,0.7283717,-0.08082358,0.6753567,-0.08267825
245324560000000,0.12086868,-0.07390094,0.022207797,0.0,0.0,0.0,0.7283425,-0.08153397,0.6751255,-0.084113866
245324580000000,0.0,0.0,0.0,0.0,0.0,0.0,0.72832316,-0.082759194,0.6748514,-0.085276015
245324600000000,0.014948845,0.018125296,0.0024389625,-0.009010263,-0.024892759,-0.17715092,1.0,0.0,0.0,0.0
245324620000000,-0.03051281,0.08589268,-0.04264182,0.0,0.0,0.0,0.7283649,-0.08516401,0.67417145,-0.087889545
245324640000000,-0.04512596,0.11788082,-0.08407444,0.0,0.0,0.0,0.7284385,-0.086289406,0.6737777,-0.08919195
245324660000000,0.0,0.0,0.0,0.0013744468,-0.03848451,-0.16646078,1.0,0.0,0.0,0.0
245324680000000,-0.06731892,0.20946264,-0.11975449,0.0065668016,-0.034055736,-0.15683965,0.728628,-0.08837968,0.67297906,-0.09159453
245324700000000,-0.01824379,0.2832563,-0.09456867,0.01450805,-0.037873644,-0.1421789,1.0,0.0,0.0,0.0
245324720000000,0.0075130463,0.33142877,-0.14739591,0.01740966,-0.034513887,-0.12812899,0.72888345,-0.08990441,0.6721985,-0.0937839
245324740000000,0.0038986206,0.35830092,-0.17863375,0.0,0.0,0.0,0.728973,-0.09065868,0.67187417,-0.09468111
245324780000000,0.0015935898,0.43643284,-0.1364572,0.020922136,-0.026572637,-0.08857546,0.72915375,-0.09167255,0.6713091,-0.096307166
245324800000000,0.018491745,0.48221707,-0.20030278,0.0,0.0,0.0,0.72921365,-0.091854446,0.67111003,-0.09706481
245324820000000,-0.039120674,0.48777604,-0.19232047,0.0,0.0,0.0,0.72923565,-0.092171416,0.6709972,-0.09737859
245324840000000,-0.063747406,0.47435832,-0.2077992,0.0,0.0,0.0,0.7292229,-0.09229646,0.67097676,-0.09749685
245324860000000,-0.062895775,0.47537065,-0.21862185,-0.013133603,-0.00290161,0.0071776668,0.7292314,-0.09230843,0.67099315,-0.097308576
245324880000000,-0.02070713,0.4358008,-0.23185426,-0.029474247,-0.001985312,0.030695979,0.72923434,-0.09222336,0.67105687,-0.096927546
245324900000000,-0.0027189255,0.3882327,-0.2545089,-0.05467244,0.002443461,0.041996986,1.0,0.0,0.0,0.0
245324920000000,-0.010744095,0.30945563,-0.23852897,-0.08032878,0.008552114,0.046883907,0.7290964,-0.0925273,0.6713839,-0.09539857
245324940000000,-0.007619858,0.270777,-0.20304841,-0.086132,0.013133603,0.055588737,0.7289722,-0.09277091,0.6716252,-0.09440795
245324960000000,0.0077705383,0.24373317,-0.19155782,-0.07360926,0.016340645,0.069027774,0.728842,-0.09270217,0.6718962,-0.093547985
245324980000000,-0.003396988,0.19323683,-0.17729306,-0.056046885,0.02687807,0.08124508,0.7286823,-0.09252067,0.6722257,-0.092600144
245325000000000,-0.0030784607,0.17595387,-0.14738339,-0.04428773,0.03573562,0.094225965,0.72847706,-0.09212955,0.67262745,-0.091683164
245325020000000,0.028575897,0.1329093,-0.12763542,-0.043982297,0.035430185,0.10705414,0.7282921,-0.0916815,0.6730311,-0.090633176
245325040000000,0.06878567,0.106823444,-0.08521336,-0.052534413,0.03176499,0.11530081,0.7281235,-0.09115258,0.6734262,-0.08957973
245325060000000,0.08056831,0.054401636,-0.045974076,-0.06093381,0.029932396,0.11927144,0.7279701,-0.0907396,0.67380977,-0.08835344
245325080000000,0.06583691,0.012897253,-0.03711945,-0.06291912,0.027641652,0.11911872,0.7278298,-0.090339765,0.6741749,-0.087124474
245325100000000,0.056533813,0.0020763874,-0.05172217,-0.070554934,0.022602014,0.11362094,0.7277151,-0.09006891,0.67449915,-0.08584465
245325120000000,0.03074646,-0.07505417,-0.007993162,-0.08231409,0.020463986,0.10354166,0.7275871,-0.08990302,0.6748128,-0.0846294
245325140000000,0.021985054,-0.13184977,0.044962227,-0.075594574,0.014660766,0.0954477,0.7275011,-0.089817606,0.6750646,-0.08344361
245325160000000,0.08786869,-0.14197874,0.066521406,-0.05467244,0.007330383,0.081855945,0.7274574,-0.089448236,0.6752479,-0.08273456
245325180000000,0.06540108,-0.15010953,0.037301302,-0.04352415,0.009010263,0.062308256,0.72741336,-0.08934164,0.67539656,-0.08202051
245325200000000,0.035245895,-0.184834,0.06158197,-0.0346666,0.0018325958,0.045662176,0.7273909,-0.08918424,0.67549056,-0.08161581
245325220000000,0.054662704,-0.16296005,0.06907928,-0.01985312,-0.01282817,0.03191771,0.7275004,-0.089132085,0.6754229,-0.081256285
245325240000000,0.053097725,-0.16029906,0.103468776,-0.0067195175,-0.01695151,0.015577064,0.7276141,-0.08895053,0.67532253,-0.08127152
245325260000000,0.028512001,-0.17919445,0.15329039,0.007330383,-0.019089539,0.0018325958,0.7277529,-0.08892047,0.67517203,-0.08131157
245325280000000,0.015277863,-0.17594767,0.18782163,0.041233405,-0.036193766,-0.0025961774,0.72801864,-0.08850058,0.6748828,-0.08179091
245325300000000,0.08404827,-0.14728117,0.16732776,0.07192938,-0.062155537,-0.007483099,1.0,0.0,0.0,0.0
245325320000000,0.12609291,-0.129951,0.14674431,0.076052725,-0.089186326,-0.025809057,0.72915953,-0.08759698,0.6736053,-0.083120845
245325340000000,0.16473389,-0.09087825,-0.0064688325,0.05589417,-0.12095132,-0.05681047,0.7299877,-0.08768142,0.67261064,-0.08381441
245325360000000,0.13070107,0.021190882,-0.2618342,-0.017562376,-0.13713925,-0.111177474,0.73079336,-0.088572785,0.6715277,-0.084537216
245325380000000,0.005821228,0.07959056,-0.38195997,-0.12935072,-0.14401148,-0.1779145,0.73147,-0.09092055,0.6704413,-0.08481478
245325400000000,-0.12978172,0.064409494,-0.42875648,-0.19990565,-0.1253801,-0.22693644,0.7318912,-0.094020456,0.6695188,-0.085088015
245325420000000,-0.24299431,0.11934519,-0.49678648,-0.19181168,-0.0954477,-0.2396119,0.73210466,-0.097150326,0.6687912,-0.08545735
245325440000000,-0.16766167,0.15125561,-0.5753119,-0.13607024,-0.06383542,-0.21303925,0.7321526,-0.09953864,0.6683047,-0.086102284
245325460000000,-0.03931713,0.18855476,-0.5767678,-0.058184914,-0.015118915,-0.16539176,0.73198324,-0.10101904,0.66816586,-0.08689119
245325480000000,0.05340767,0.2717917,-0.4833033,0.027641652,0.05375614,-0.099265605,0.7315204,-0.101316616,0.66849434,-0.08790986
245325500000000,0.056277275,0.36208606,-0.28039747,0.101098195,0.11010846,-0.016798794,0.7308421,-0.100495115,0.6692395,-0.08882036
245325520000000,0.052339554,0.41486478,-0.07824808,0.12614368,0.13362677,0.06658431,0.7300973,-0.098760076,0.67022264,-0.08947674
245325540000000,0.06273842,0.38590264,0.13583773,0.09514226,0.12217305,0.13316862,0.7294984,-0.09701259,0.6711638,-0.08921793
245325560000000,0.09431553,0.30107355,0.31905037,0.03772093,0.087659165,0.17989981,0.7291051,-0.09522965,0.6719515,-0.088420875
245325580000000,0.11223507,0.13457537,0.35708088,-0.008399397,0.055436023,0.1957823,0.72892994,-0.09395137,0.67251486,-0.08693765
245325600000000,0.10306072,-0.056091785,0.300556,0.0056505036,0.041996986,0.1994475,0.7288402,-0.092487305,0.6729836,-0.08562254
245325620000000,0.042325974,-0.15163231,0.1858511,0.06811147,0.042760566,0.19058995,0.72879374,-0.0906589,0.6733915,-0.08476209
245325640000000,-0.057063103,-0.15204072,0.06581402,0.11789699,0.03848451,0.17027868,1.0,0.0,0.0,0.0
245325660000000,-0.15111065,-0.18869853,-0.04954511,0.0,0.0,0.0,0.72882855,-0.08649503,0.6739407,-0.084448606
245325680000000,-0.16559792,-0.20545006,-0.12868059,0.1470658,0.0038179078,0.1282817,0.72900724,-0.08434287,0.67397773,-0.08478693
245325700000000,-0.040714264,-0.20417857,-0.13091308,0.14355333,-0.019394971,0.12492194,0.7293785,-0.082498945,0.6737988,-0.08483046
245325720000000,0.030385017,-0.25547576,-0.09902716,0.14767668,-0.016340645,0.12217305,0.72969204,-0.08047303,0.67366874,-0.08511264
245325740000000,0.023931503,-0.2591548,-0.10978562,0.15851954,-0.008093964,0.117744274,0.72996134,-0.0785339,0.67357695,-0.085339576
245325760000000,0.05641842,-0.21285796,-0.09980118,0.14477506,-0.013286319,0.10934488,0.73023385,-0.076657765,0.6734597,-0.08564015
245325780000000,0.08441353,-0.28662753,-0.07730597,0.112399206,-0.027794369,0.098807454,0.7305882,-0.07524011,0.67323273,-0.0856602
245325800000000,0.079808235,-0.31036568,0.23279917,0.10369437,-0.03634648,0.08552113,0.73098433,-0.07385409,0.67293024,-0.08586248
245325820000000,-0.04861164,-0.063132286,0.95065075,0.0,0.0,0.0,0.73165774,-0.07249885,0.6723041,-0.086186714
245325840000000,-0.040678024,0.20339012,0.8995513,0.0983493,-0.17027868,0.06047566,0.7331745,-0.07134059,0.6707499,-0.086372934
245325860000000,0.07006931,0.08218932,0.41571528,-0.054061573,-0.28099802,0.049021937,0.73516417,-0.0716514,0.6686538,-0.0854509
245325880000000,0.012252808,-0.1012249,0.46157622,-0.2724459,-0.34330627,0.052687127,0.7373455,-0.073696904,0.6663378,-0.082971975
245325900000000,-0.09471607,-0.13953376,0.7689947,-0.4092797,-0.376293,0.08170322,0.7396518,-0.07658192,0.6639041,-0.079257555
245325920000000,-0.15227509,-0.038334846,0.69121754,-0.47051895,-0.39721513,0.071318515,0.74199915,-0.07987614,0.66135424,-0.07528397
245325940000000,-0.20409489,-0.1955018,0.41535735,0.0,0.0,0.0,0.74435145,-0.08396657,0.65861344,-0.07154583
245325960000000,-0.26822376,-0.43369007,0.24392152,-0.4474588,-0.4364632,-0.032070424,0.74681056,-0.08782186,0.65563834,-0.06855432
245325980000000,-0.20137596,-0.34579706,0.12496984,-0.3379612,-0.44990227,-0.05665775,0.7494277,-0.0909649,0.6524345,-0.06642872
245326000000000,-0.1804266,0.008404255,-0.093738794,-0.3119994,-0.46853364,-0.11133019,0.7521145,-0.09424047,0.6490219,-0.06490945
