timestamp,accel_x,accel_y,accel_z,gyro_x,gyro_y,gyro_z,rot_w,rot_x,rot_y,rot_z
264214200000000,0.0,0.0,0.0,-0.18829921,-0.07513642,-0.032986723,0.64391685,-0.45162678,0.5610785,0.25806072
264214220000000,0.32183647,0.1979804,-0.053394765,0.0,0.0,0.0,0.6435595,-0.4528238,0.5599735,0.25925186
264214240000000,0.0,0.0,0.0,-0.21135938,-0.03573562,0.029321533,1.0,0.0,0.0,0.0
264214260000000,0.2636156,0.08118081,0.019465,0.0,0.0,0.0,0.6420804,-0.4550883,0.5584777,0.2621643
264214280000000,0.23262501,0.041200638,0.0066862702,-0.21013765,-0.011301007,0.06169739,0.6410759,-0.45607775,0.55807537,0.26375508
264214300000000,0.0,0.0,0.0,-0.2191479,-0.011911872,0.0580322,0.64001256,-0.45703858,0.55774516,0.26536778
264214320000000,0.15437412,-0.0571208,0.040249467,-0.22449298,-0.004886922,0.04520403,0.6389238,-0.45808154,0.55735165,0.26701492
264214340000000,0.12896156,-0.09440589,0.07218444,-0.22800545,0.00076358154,0.022296581,0.6378027,-0.45925352,0.5569226,0.26857245
264214360000000,0.058350563,-0.11218572,0.035586804,-0.23991732,0.0025961774,-0.0035124752,0.63670063,-0.46058452,0.55641407,0.2699585
264214380000000,0.02528286,-0.11523342,0.042793274,-0.2489276,0.0067195175,-0.022143865,0.63559806,-0.46214744,0.5557548,0.27124062
264214400000000,0.019533157,-0.09212875,0.08811915,-0.25488353,0.0106901415,-0.032986723,0.6344763,-0.46388024,0.55500627,0.27243915
264214420000000,0.07952404,-0.06663275,0.13738579,-0.25610524,0.003970624,-0.037873644,0.6333301,-0.4657076,0.55422145,0.27358383
264214440000000,0.30466843,-0.04553318,0.23087743,-0.24785857,0.012217305,-0.04260785,0.6322243,-0.4675493,0.55336106,0.27473933
264214460000000,0.533741,-0.043548822,0.24372244,-0.24556783,0.03268129,-0.04734206,0.6311266,-0.46937206,0.55255175,0.275782
264214480000000,0.58517075,-0.0029036999,0.24662608,0.0,0.0,0.0,0.6299273,-0.47126308,0.5518707,0.27666134
264214500000000,0.5785694,-0.0184865,0.29970023,-0.23716843,0.05222898,-0.021685716,0.62862253,-0.47316405,0.55128133,0.2775579
264214520000000,0.5488262,-0.028082132,0.26291168,-0.24419338,0.07391469,-0.008246681,0.6272746,-0.47490126,0.55085784,0.2784799
264214540000000,0.46638584,-0.04978943,0.17645973,-0.26816985,0.10720685,0.004581489,1.0,0.0,0.0,0.0
264214560000000,0.0,0.0,0.0,-0.28496864,0.13561209,0.022907447,0.6238406,-0.4786187,0.5505629,0.28040624
264214580000000,0.06637955,-0.19919205,0.13730192,-0.31245756,0.13408493,0.035888333,0.62165135,-0.48065713,0.5507275,0.2814564
264214600000000,0.03657055,-0.22446084,0.23146772,-0.3736968,0.13927728,0.031612277,0.61931545,-0.4827672,0.5508525,0.28274685
264214620000000,0.0658741,-0.27982473,0.27616897,-0.47311515,0.15622878,0.00061086525,0.61667305,-0.48529467,0.5507766,0.28433877
264214640000000,-0.08918285,-0.32355404,0.35365123,-0.61636305,0.14049901,-0.037415497,0.6135012,-0.48867443,0.5503715,0.28619
264214660000000,-0.29072475,-0.33380508,0.50152516,-0.7328856,0.1049161,-0.05024367,0.60977906,-0.49311775,0.54925394,0.28866008
264214680000000,-0.25154972,-0.48861074,0.67196846,-0.7716755,0.12064589,-0.05100725,0.605737,-0.49819374,0.5474182,0.29192325
264214700000000,-0.2631054,-0.652544,0.8185165,-0.72127914,0.14477506,-0.020463986,0.60142225,-0.5035011,0.54553413,0.29524654
264214720000000,-0.3565426,-0.8296411,0.92103547,-0.5580254,0.1518,0.046578474,0.597146,-0.5083524,0.54408395,0.2982739
264214740000000,-0.41402435,-1.045021,1.0649259,-0.28695396,0.15363261,0.13316862,0.59369075,-0.5117731,0.54331803,0.30070755
264214760000000,-0.3377533,-1.2261074,1.1877662,0.06612616,0.15409076,0.21991149,0.5915459,-0.51305693,0.5436907,0.3020704
264214780000000,-0.2495079,-1.3343489,1.2305777,0.40576723,0.15882497,0.2724459,0.5911828,-0.5117228,0.5454333,0.30190286
264214800000000,-0.13385296,-1.2478018,1.1186241,0.6282749,0.17058411,0.26984972,0.59319913,-0.5080802,0.5478017,0.29980433
264214820000000,-0.024943352,-1.0461404,0.8190234,0.7301367,0.17363845,0.22800545,0.5966383,-0.5033199,0.5504778,0.29608423
264214840000000,-0.09554291,-0.971179,0.7596121,0.8597928,0.1611157,0.21594086,0.5991352,-0.49820888,0.5544335,0.29228154
264214860000000,-0.17583847,-0.94590425,0.75038266,1.0086912,0.12492194,0.20479257,0.602076,-0.49232435,0.5587958,0.28786922
264214880000000,-0.10649395,-0.70501804,0.6222418,1.0841331,0.1067487,0.19715676,0.605887,-0.48536527,0.5633596,0.28274983
264214900000000,0.046383858,-0.5513427,0.46845633,1.1201742,0.10476339,0.18616119,0.6100878,-0.47791365,0.5679212,0.2772308
264214920000000,0.12453365,-0.47032475,0.33438492,1.112691,0.092240654,0.17256944,0.6143637,-0.47029307,0.5724559,0.27143344
264214940000000,0.12774086,-0.3406415,0.2216556,1.0231993,0.06627888,0.14828753,0.6185858,-0.46269193,0.5767994,0.2656505
264214960000000,0.23178387,-0.21194053,0.13277805,0.86529064,0.03863723,0.11362094,0.6225119,-0.4556855,0.58055377,0.26035962
264214980000000,0.32379532,-0.19428682,0.08158928,0.6808093,0.012980887,0.069485925,0.6258879,-0.44978997,0.5834928,0.25590935
264215000000000,0.33979893,-0.206141,0.04838735,0.50915617,-0.017562376,0.019700404,0.62864214,-0.4452406,0.585559,0.2523699
264215020000000,0.29897785,-0.21220756,0.027080655,0.37843102,-0.053297993,-0.030848695,0.6309088,-0.44198143,0.58675295,0.24965496
264215040000000,0.25515556,-0.29303002,-0.060132146,0.30497447,-0.07895433,-0.07315111,0.63294154,-0.4397324,0.58715594,0.24752437
264215060000000,0.2449379,-0.35779047,-0.07356751,0.28924468,-0.08109236,-0.10949759,0.6349101,-0.43812022,0.5870234,0.24564923
264215080000000,0.21649837,-0.34564924,-0.12886083,0.30787608,-0.0664316,-0.14584407,0.6369153,-0.43677425,0.5867032,0.2436117
264215100000000,0.20773602,-0.29419422,-0.18677521,0.33169982,-0.05207626,-0.17898351,0.63899654,-0.43553826,0.5863813,0.2411366
264215120000000,0.11737728,-0.2212398,-0.24477446,0.344528,-0.038026363,-0.20647246,0.6411704,-0.43435895,0.58607244,0.23822686
264215140000000,0.07607937,-0.13408709,-0.2845701,0.33582318,-0.029932396,-0.23487769,0.6433684,-0.4332867,0.5857536,0.23501566
264215160000000,0.023836136,-0.0037784576,-0.3786611,0.30069843,-0.029932396,-0.2649628,0.6455223,-0.4324392,0.5853577,0.23163241
264215180000000,0.027842522,0.12309241,-0.41841263,0.2649628,-0.026725354,-0.29611692,0.647571,-0.43200862,0.58472604,0.22828893
264215200000000,0.07157993,0.17263842,-0.4162827,0.23976462,-0.013591751,-0.3210097,0.6495147,-0.43198782,0.5838827,0.22494039
264215220000000,0.0,0.0,0.0,0.21838433,0.0015271631,-0.33429602,1.0,0.0,0.0,0.0
264215240000000,0.054834366,0.40063858,-0.40532917,0.20387627,0.013133603,-0.33261612,0.6529526,-0.43283263,0.5820309,0.21805707
264215260000000,0.07356262,0.48568988,-0.3700139,0.19318613,0.02397646,-0.3202461,0.6544422,-0.4334705,0.58114505,0.21466082
264215280000000,0.060131073,0.6262264,-0.3495966,0.15958855,0.02687807,-0.30741793,0.6557891,-0.43409294,0.5803711,0.21136087
264215300000000,0.031092644,0.71081305,-0.33420184,0.10644327,0.028863383,-0.29061913,0.6569213,-0.43485537,0.5796062,0.20835508
264215320000000,0.037073135,0.7372427,-0.32789603,0.07727446,0.033444874,-0.2509129,0.6577747,-0.4358752,0.57879627,0.20576738
264215340000000,-0.006512642,0.77630997,-0.26916578,0.0,0.0,0.0,0.658343,-0.43687472,0.5781536,0.2036257
264215360000000,-0.009625435,0.8539829,-0.25469032,0.0571159,0.027183503,-0.17241672,0.65891767,-0.4374224,0.5777467,0.20173737
264215380000000,-0.0031423569,0.9493127,-0.2686872,-0.014813482,0.034972034,-0.14049901,1.0,0.0,0.0,0.0
264215400000000,-0.036040306,0.95450425,-0.22296482,-0.0729984,0.037873644,-0.106137834,0.6591679,-0.438851,0.5771581,0.19948976
264215420000000,-0.050147057,0.95551157,-0.16375148,0.0,0.0,0.0,0.6587319,-0.43991795,0.5769282,0.19924426
264215440000000,-0.045575142,0.91606784,-0.10428411,-0.1742493,0.036957346,-0.038331795,0.65804416,-0.44109604,0.5767418,0.19945222
264215460000000,-0.09042072,0.88789606,-0.040353,-0.26221392,0.021227567,-0.011148291,0.65707535,-0.442423,0.57657075,0.20020014
264215480000000,-0.12348652,0.84681344,0.0596568,-0.36285394,-0.0025961774,0.009010263,0.65576833,-0.44412032,0.5762278,0.20170952
264215500000000,-0.14266491,0.7377274,0.23763734,-0.4372268,-0.03634648,0.025350908,0.6541289,-0.44634253,0.57555115,0.204046
264215520000000,-0.22009277,0.5794549,0.3534128,-0.47616947,-0.082619525,0.04230242,0.65234274,-0.44886133,0.57453734,0.20707344
264215540000000,-0.24504757,0.44702172,0.48712027,-0.5196936,-0.12904528,0.05467244,0.6506323,-0.45145133,0.57317865,0.21056022
264215560000000,-0.20589352,0.38052607,0.52950597,-0.5766568,-0.16920967,0.054061573,0.64897144,-0.45412815,0.5714561,0.21457338
264215580000000,-0.2064848,0.262218,0.53964835,-0.6082691,-0.20998493,0.04718934,0.6472308,-0.4571478,0.56931937,0.21905191
264215600000000,-0.18595886,0.1373787,0.45596194,-0.5914703,-0.23441954,0.046578474,1.0,0.0,0.0,0.0
264215620000000,-0.14922619,0.06780672,0.34649062,-0.515723,-0.22678372,0.06719518,0.64406955,-0.46334523,0.56413436,0.22855626
264215640000000,-0.09791756,0.036059856,0.22156209,0.0,0.0,0.0,0.64282113,-0.46573046,0.56179917,0.2329331
264215660000000,-0.058829308,0.121104,0.09243959,-0.37827832,-0.18646662,0.1253801,0.6418113,-0.46735042,0.55995727,0.23687497
264215680000000,0.036561966,0.17837667,-0.06228459,-0.36193767,-0.16371189,0.15470162,0.64080346,-0.46857345,0.55848646,0.24062999
264215700000000,0.097187996,0.16273165,-0.16035104,-0.35002577,-0.14569137,0.18646662,0.6396418,-0.46960187,0.5573212,0.24438806
264215720000000,0.15098953,0.14488006,-0.18800956,-0.3352123,-0.13041973,0.22266038,0.6383436,-0.4704238,0.5564347,0.24819236
264215740000000,0.24012661,0.11485529,-0.2288062,-0.3388775,-0.100792766,0.24969117,1.0,0.0,0.0,0.0
264215760000000,0.27376842,0.12680721,-0.28877908,-0.36377025,-0.063224554,0.2761111,0.6352536,-0.47147068,0.5555322,0.25603154
264215780000000,0.25498104,0.030397654,-0.28756267,-0.36117408,-0.03191771,0.31138855,0.633152,-0.4720867,0.5555222,0.260092
264215800000000,0.19851112,-0.16582131,-0.2520246,-0.31444287,-0.001985312,0.3510948,0.6307843,-0.4725818,0.55585456,0.26420343
264215820000000,0.17167377,-0.3082943,-0.21177858,0.0,0.0,0.0,1.0,0.0,0.0,0.0
264215840000000,0.18032932,-0.38387227,-0.21186364,-0.2649628,0.05207626,0.3827071,0.62590444,-0.47231507,0.55789894,0.27186573
264215860000000,0.16839409,-0.51259637,-0.18321693,-0.259465,0.07574729,0.37110063,0.62331945,-0.47201848,0.5593048,0.2754082
264215880000000,0.108083725,-0.6133988,-0.13565654,-0.26725355,0.08231409,0.34437528,0.6206475,-0.47181603,0.5607944,0.27873993
264215900000000,0.0659399,-0.70200133,-0.058760107,-0.27015516,0.083383106,0.3115413,0.61797595,-0.47181824,0.56215614,0.28191105
264215920000000,0.067020416,-0.81634307,0.046206594,-0.24755314,0.09101892,0.27977628,0.61540693,-0.47205502,0.56328744,0.284861
264215940000000,0.023344994,-0.88239026,0.112276435,-0.22632557,0.09285152,0.23976462,0.6129914,-0.4723304,0.5643802,0.28743806
264215960000000,0.08717728,-0.93208957,0.14939833,-0.21242839,0.089491755,0.18997909,0.61085474,-0.47275788,0.5652729,0.28952208
264215980000000,0.09532833,-1.018214,0.30028814,-0.15699236,0.091477074,0.15470162,0.60917115,-0.47351906,0.5656676,0.29105052
264216000000000,0.0,0.0,0.0,-0.113162786,0.074067414,0.10873401,0.6079857,-0.47415495,0.56594574,0.29195213
264216020000000,0.056943893,-0.96218586,0.43999058,-0.12140947,0.056199603,0.05971208,0.6071239,-0.4745885,0.5661954,0.29255617
264216040000000,0.04658127,-0.89139247,0.557903,-0.12675454,0.033444874,0.014049901,0.6065237,-0.4752786,0.5660089,0.2930413
264216060000000,0.026968956,-0.90059733,0.6414428,-0.11102476,0.006414085,-0.014966198,0.6063139,-0.47621167,0.565294,0.2933402
264216080000000,0.012458801,-0.84732723,0.7006558,-0.042913284,-0.011453724,-0.020922136,0.60642046,-0.47706833,0.56434304,0.29355937
264216100000000,0.0077552795,-0.7737551,0.7564467,0.07880162,-0.016493361,-0.012217305,0.6069884,-0.47742823,0.5634602,0.29349646
264216120000000,0.016994476,-0.66587853,0.77604604,0.20234911,-0.01160644,0.010537425,0.6080763,-0.4768962,0.5630643,0.2928686
264216140000000,0.02352333,-0.48822212,0.7242037,0.29352075,-0.007330383,0.0346666,0.60940135,-0.47545964,0.5634271,0.2917499
264216160000000,-0.0053272247,-0.36289978,0.6469532,0.35995236,-0.005497787,0.048716504,0.61089253,-0.4733666,0.56432706,0.29029205
264216180000000,-0.020977974,-0.26189804,0.5616622,0.41615194,-0.012064588,0.051618114,0.61256766,-0.47081155,0.5655369,0.28855735
264216200000000,-0.073937416,-0.23875833,0.48627234,0.0,0.0,0.0,0.6144905,-0.46789557,0.5668861,0.28655776
264216220000000,-0.12905502,-0.29041243,0.3965757,0.46517387,-0.055588737,0.031001411,0.6166911,-0.4647203,0.5682134,0.28436017
264216240000000,-0.15121174,-0.2512312,0.30434942,0.0,0.0,0.0,0.6190993,-0.46149743,0.56932104,0.28215185
264216260000000,-0.18007946,-0.24249268,0.1498574,0.2837469,-0.13133603,-0.05665775,0.6215375,-0.4587686,0.5698138,0.2802405
