accel_x,accel_y,accel_z,gyro_x,gyro_y,gyro_z,rot_w,rot_x,rot_y,rot_z,timestamp
2.0213962,-4.0826902,-3.2653387,-3.3267722,-2.8040242,3.4240525,0.041176487,0.22036105,-0.63322407,0.7407921,244353171151470
2.7041888,-4.1073904,-0.037409753,-4.794681,-2.7250698,3.3533447,1.0,0.0,0.0,0.0,244353191094683
4.7375693,-6.050378,0.95490515,-4.886006,-2.731484,3.4057264,0.021363884,-0.21209753,0.7178577,-0.6627508,244353211045527
6.593314,-7.082514,0.4310372,-3.6325102,-2.2855523,3.5530977,0.05347671,-0.20228386,0.7478139,-0.63007617,244353231004000
6.2298145,-9.39649,-2.975012,-1.704925,-1.3959798,3.601356,0.09443888,-0.19802055,0.7599914,-0.61178607,244353250954843
4.72298,-10.193821,-3.2995834,-0.83276206,-0.16905695,3.3742669,0.11413455,-0.17371279,0.77052367,-0.6025698,244353270898056
3.4118264,-8.802206,1.0819917,-0.6220135,0.79366666,3.0198123,0.13426922,-0.15883571,0.7774672,-0.59353834,244353290848901
2.4386826,-8.479527,4.546485,0.9222538,1.2820535,2.807384,0.14157097,-0.12797599,0.7778052,-0.59883124,244353310807373
2.4654856,-8.313204,4.929739,3.4019086,1.4286611,2.5271494,0.15905209,-0.10571901,0.7594536,-0.6218973,244353330758216
3.6465545,-6.475626,1.8921425,5.5400896,1.6366607,1.9830213,0.16447645,-0.07132146,0.7269109,-0.66291887,244353350701428
3.590316,-6.067665,-0.5452274,5.7375517,2.0331123,0.9978484,0.16638097,-0.047535155,0.69035196,-0.7024756,244353370644644
1.7886657,-5.9300966,-0.4582889,4.7839913,2.1629212,0.13255776,0.15343688,-0.02408003,0.6601128,-0.73493433,244353390587856
1.3338103,-5.286333,0.6065663,4.6470046,1.8634444,-0.0015271631,0.14786305,-0.008574409,0.6285302,-0.7635528,244353410538702
3.06047,-3.7038813,1.9138489,4.8305697,1.3836098,-0.19120082,0.13816935,0.0076343715,0.5928088,-0.7933654,244353430497175
3.8155944,-2.6734753,2.0347426,5.2710032,1.0294607,-0.571159,0.13015644,0.01689091,0.5517497,-0.82361776,244353450448017
3.2896738,-2.0639296,-0.056815147,6.268241,0.7979427,-0.65087694,0.11884343,0.027568832,0.500061,-0.8573536,244353470391230
3.2802224,-2.2388153,-2.3313608,7.401243,0.5021312,-0.46670106,0.10994325,0.037845157,0.435486,-0.8926546,244353490342093
1.9863286,-2.5972495,-2.883428,7.735234,0.32421672,-0.45646906,0.099457905,0.04373795,0.37081835,-0.922328,244353510300596
0.1140511,-0.8972168,-2.917808,7.2825828,0.20234911,-0.047494773,0.09471719,0.05224793,0.303158,-0.9467809,244353530251473
-0.5917492,1.0172682,-2.8117313,6.180582,0.09468412,0.54473907,0.09686151,0.06074673,0.24442418,-0.9629043,244353550194718
-1.5719649,1.6457071,-2.8261242,4.8652363,-0.21426098,0.6817256,0.101193376,0.06484085,0.19783305,-0.9728401,244353570137966
-2.1778965,-0.020326376,-1.8852854,3.7905715,-0.3239113,0.66966105,0.10611475,0.06668034,0.16080059,-0.9789977,244353590081212
-3.591234,-0.29672265,-1.653799,2.3829854,-0.46502116,0.39690968,0.1137654,0.095621735,0.14697653,-0.977912,244353610032090
-3.1918104,0.26559258,-1.6859207,1.141249,-0.5375614,0.4915938,0.12072072,0.106189385,0.13815646,-0.9772733,244353629990596
-2.6313415,0.4652028,-1.3791928,0.24602598,-0.7814494,0.32268956,0.12581092,0.10470449,0.13596225,-0.97709924,244353649941471
-1.5941532,0.21552706,-1.9037704,0.010231993,-0.86620694,0.28344148,0.1296972,0.09640312,0.1349628,-0.9775839,244353669884717
-0.6234441,0.2889259,-2.282215,-0.00870483,-0.8561276,0.21868975,0.1329758,0.08837843,0.13379847,-0.97806174,244353689827966
-0.65983224,0.40296507,-2.6145992,0.14920384,-0.79351395,0.23564127,0.13612819,0.08120188,0.13111222,-0.9786138,244353709771211
-0.66983986,0.5622257,-2.3817844,0.19990565,-0.7626653,0.31123585,0.14006172,0.074627325,0.12765287,-0.97903955,244353729722089
-1.7170773,0.6388037,-2.4694223,-0.04062254,-0.8926268,0.3368922,0.14453408,0.066289,0.12661856,-0.97912383,244353749680595
-2.6126132,0.092353106,-2.7978525,-0.28970283,-0.95065904,0.38820487,0.14984228,0.057021048,0.12808338,-0.9787188,244353769631470
-2.7813492,-0.49169874,-1.9754891,-0.2761111,-0.8240572,0.32284227,0.15424426,0.04931096,0.12968595,-0.9782427,244353789574716
-3.3592887,-1.4932859,-0.23090076,-0.09773844,-0.7948884,0.1160644,0.1564016,0.041761342,0.1293104,-0.97830135,244353809517965
-3.79745,-0.63550425,-0.11995506,0.060628377,-0.74113226,-0.044898596,0.15664223,0.034639154,0.127511,-0.97877693,244353829461210
-2.7086763,0.13748384,-0.23978424,-0.025961773,-0.6844745,-0.12034045,0.15701295,0.031873226,0.12719692,-0.97885245,244353849412089
-1.7756158,-0.5764501,1.1249647,-0.16187929,-0.73655075,-0.2593123,0.15534192,0.024158783,0.12795252,-0.97924125,244353869370594
-1.7604926,-1.7102344,1.5176859,0.007330383,-0.7866417,-0.33429602,0.1530064,0.015905974,0.12677528,-0.9799307,244353889321470
-0.8733728,-1.0409484,0.7463541,0.12721269,-0.6786713,-0.34513888,0.1504178,0.009193241,0.12437329,-0.98072493,244353909264716
0.4043356,-0.76243377,0.5358429,-0.03023783,-0.65316767,-0.34972036,0.14779535,0.0023398378,0.12372899,-0.9812453,244353929215593
0.7976145,-1.1636171,1.0064182,-0.10827587,-0.61819565,-0.34162638,0.14521721,-0.0043549556,0.124084145,-0.9815784,244353949174099
0.7341175,-1.4996669,0.60735893,-0.061239243,-0.5513059,-0.3587306,0.14236481,-0.010250226,0.1239725,-0.9819664,244353969124976
0.37706944,-2.1650183,0.28722477,0.20005837,-0.50991976,-0.36667186,0.13935563,-0.015444655,0.12127652,-0.9826666,244353989068221
0.39099658,-1.4815612,0.6221447,0.5934556,-0.41034874,-0.31856623,0.13684617,-0.018913416,0.11462133,-0.98375684,244354009011469
0.6407089,-0.084496975,0.5004072,0.6750061,-0.3631594,-0.259465,0.13485926,-0.021725813,0.107091,-0.9848211,244354028954715
1.017309,0.53640056,0.25173378,0.3894266,-0.34300083,-0.28725937,0.13248909,-0.025421446,0.102541834,-0.9855382,244354048905593
1.119453,0.22262418,-0.27132797,0.10399981,-0.2883284,-0.30909783,0.12951887,-0.029648187,0.10111732,-0.98596203,244354068864099
1.1727146,-0.49454284,-0.71031475,-0.020463986,-0.21471913,-0.3126103,0.12625769,-0.033749502,0.10191703,-0.9861708,244354088814974
1.1567823,-0.6098182,-0.2676916,0.16142114,-0.08384126,-0.30863968,0.120094985,-0.04879881,0.10696106,-0.9857765,244354108758220
0.6472188,-0.24841213,-0.02277565,0.43676865,0.0154243475,-0.3381139,0.116944514,-0.048409175,0.10231578,-0.9866672,244354128716728
0.23063874,0.16399312,-0.33129883,0.5545129,0.0571159,-0.35201108,0.113654055,-0.04748818,0.09661685,-0.9876704,244354148690491
0.5918404,0.2962582,-0.83829594,0.5849035,0.08735373,-0.3304781,0.11058711,-0.046278607,0.090741545,-0.9886328,244354168618480
0.43978506,0.26795828,-0.71449566,0.56046885,0.11484267,-0.27122417,0.10808233,-0.044721313,0.085188806,-0.9894752,244354188500692
0.16075307,-0.046040416,-0.28626823,0.49648073,0.104610674,-0.19501872,0.1063475,-0.043334637,0.080396846,-0.99012566,244354208443939
-0.0073437095,-0.44779134,-0.09142971,0.4812091,0.080634214,-0.14935656,0.105071545,-0.04213106,0.07572406,-0.990682,244354228448221
-0.22846064,-0.3112868,0.03925419,0.3707952,0.06169739,-0.13255776,0.103870176,-0.041246098,0.07203653,-0.9911208,244354248421986
-0.2318371,-0.26927638,0.1782875,0.03481932,0.012064588,-0.12339478,0.10269478,-0.041185275,0.07174553,-0.991267,244354268365231
0.12865359,-0.9713074,0.3592205,-0.23335053,-0.079107046,-0.1601994,0.101032354,-0.042454116,0.07437331,-0.99119055,244354288308479
0.39419818,-0.6785402,0.7418814,-0.008246681,-0.08628472,-0.11209377,0.099960506,-0.043454885,0.07435398,-0.9912573,244354308251724
0.2695294,0.17417371,0.26458836,0.044593163,-0.0842994,-0.0852157,0.09928661,-0.044269897,0.073430814,-0.99135786,244354328202603
0.4360119,0.5134493,-0.35630512,-0.3211624,-0.08170322,-0.10873401,0.09811033,-0.045426425,0.07657601,-0.9911847,244354348161109
0.39950585,0.4071263,-0.69596577,-0.6656904,-0.09254608,-0.105832405,0.09676154,-0.0471379,0.08341954,-0.9906848,244354368111984
0.43911946,-0.2849654,-0.5283613,-0.6377433,-0.09208794,-0.063224554,0.09595421,-0.0487494,0.08985782,-0.99012226,244354388055230
0.46801788,-0.48538542,0.024944305,-0.19456059,-0.045356743,-0.033292156,0.095559664,-0.049435228,0.09165099,-0.989962,244354407998479
0.38248855,0.27162564,0.21193314,0.20265454,0.040011674,0.034055736,0.096007355,-0.048735023,0.0891564,-0.9901811,244354427941724
0.4246118,0.8757305,-0.001414299,0.029932396,0.040011674,0.081855945,0.096859045,-0.048255213,0.08849882,-0.99018073,244354447892602
0.38710302,0.27251554,-0.051446915,-0.3578143,-0.026419923,0.059406646,0.097289406,-0.048867814,0.09237532,-0.98975426,244354467851108
0.39362514,-0.9182751,0.0672493,-0.32177326,-0.07788532,0.0346666,0.0974776,-0.05016255,0.09595823,-0.98933005,244354487801983
0.59759223,-0.5384979,-0.039560318,0.06765333,0.018020526,0.06047566,0.09807074,-0.049923167,0.09521522,-0.9893554,244354507745229
0.62291694,0.28308117,-0.2741356,0.1591304,0.069485925,0.077579886,0.09892091,-0.048891224,0.09328199,-0.98950636,244354527688478
0.62459826,0.5330856,-0.21173191,-0.24602598,0.06078109,0.04841107,0.099167995,-0.048520114,0.09592956,-0.9892468,244354547631723
0.50929767,-0.27771258,-0.013453484,-0.49373183,-0.001985312,0.04444045,0.09932785,-0.049132276,0.10129675,-0.98866534,244354567582602
0.50172,-0.6298363,0.25048733,-0.22082779,0.03863723,0.10720685,0.10021689,-0.04891869,0.10364537,-0.98834264,244354587541107
0.6587126,0.0505383,0.35267925,0.1001819,0.12660182,0.1853976,0.102079235,-0.047273222,0.10247081,-0.9883546,244354607491983
0.65544367,0.33312464,0.4385128,-0.045814894,0.14935656,0.15195273,0.10344095,-0.045587737,0.10293683,-0.9882438,244354627435229
0.48930997,0.21673536,0.5005665,-0.4250095,0.14492778,0.12568553,0.1042384,-0.044574384,0.10762132,-0.987707,244354647386106
0.51748055,0.51245165,0.9407387,-0.66691214,0.18463401,0.22327125,0.10595754,-0.043157365,0.11472862,-0.9867866,244354667344612
0.2349152,-1.1474609,2.1265907,-0.6414085,0.030543262,0.2312125,0.10801591,-0.043323256,0.12142614,-0.9857542,244354687295489
-0.13834953,-1.7633147,2.8521414,-0.1965459,0.06536258,0.23777929,0.11014952,-0.042736888,0.123490915,-0.9852871,244354707238734
0.011218607,-0.86699295,2.6076202,0.236863,0.15699236,0.23655757,0.11244769,-0.040467095,0.1208794,-0.98544717,244354727181982
0.38517308,-0.40536666,2.2229633,0.16325374,0.22983804,0.16417004,0.11383905,-0.037765086,0.119390495,-0.9855763,244354747125228
0.20310834,-1.5092859,2.9378262,0.16172658,0.23793201,0.023823744,0.11373442,-0.035240773,0.11853793,-0.98578465,244354767076106
-0.4901681,-2.8505414,3.8011913,0.9868528,0.30451632,-0.07009678,0.11298983,-0.031212533,0.10901863,-0.9871039,244354787034612
0.0,0.0,0.0,1.7672331,0.41813725,-0.27565295,0.11029987,-0.025109151,0.09118087,-0.98938847,244354806985487
-1.1529242,-1.0535419,2.3151064,1.9205604,0.3474296,-0.552833,0.10474837,-0.020013928,0.07210462,-0.9916795,244354826928733
