accel_x,accel_y,accel_z,gyro_x,gyro_y,gyro_z,rot_w,rot_x,rot_y,rot_z,timestamp
1.4345322,1.9172584,-2.694902,0.0,0.0,0.0,1.0,0.0,0.0,0.0,245957457146339
0.96848965,2.4716034,-4.107383,-1.2657127,-0.050396383,-0.57543504,0.33074892,-0.59380746,0.6080094,0.41027126,245957477089560
0.45819855,-0.020731568,-1.0362911,0.0,0.0,0.0,0.32306018,-0.6027456,0.5994623,0.41590244,245957497032778
-0.455575,-1.1935408,0.991251,-0.8527679,0.024129177,-0.52748215,0.33182472,-0.6115626,0.5824549,0.42027363,245957516975998
-0.78234005,-0.60243154,1.1680517,-0.6611089,-0.32513303,-0.35476,0.33252826,-0.6153216,0.57479405,0.42475435,245957536934476
-0.0123233795,-0.038506985,0.23242474,-0.5390886,-0.48166725,-0.31688634,0.33303905,-0.6167553,0.5690543,0.42997113,245957556892956
-0.44126892,0.043014646,-0.548352,-0.52641314,-0.4428773,-0.17165314,0.3337262,-0.6179429,0.5635361,0.4349718,245957576836174
-0.743392,0.51326305,-0.079769135,-0.49388456,-0.27168232,-0.07009678,0.3330197,-0.61837375,0.5596151,0.43993497,245957596779394
-0.77332973,0.24754441,0.23838782,-0.44012842,-0.07086037,-0.0096211275,0.3312396,-0.6196177,0.55658,0.4433657,245957616722612
-0.97344685,-0.23621082,0.11689758,-0.45814893,-0.0010690142,-0.04337143,0.3286399,-0.6209241,0.5547938,0.44570518,245957636665833
-0.8029871,-0.07072371,0.42207313,-0.57558775,0.03772093,-0.06612616,0.32561928,-0.62322223,0.5520167,0.4481561,245957656624311
-0.55217075,0.17847508,0.8695245,-0.6001751,-0.0013744468,0.040775254,0.32167175,-0.6254176,0.5491897,0.4514099,245957676582789
0.12207699,-0.1826126,0.92752695,-0.50869805,-0.043218717,0.13637567,0.31827888,-0.62646776,0.5470498,0.45494315,245957696480231
0.1777296,0.25017583,-0.16401243,-0.6928739,0.09407325,0.22479841,0.3134697,-0.6272006,0.5458193,0.45873475,245957716377675
0.4739952,-1.1603904,-0.27315974,-0.28298333,0.24846944,0.3463606,0.30770507,-0.6287445,0.5450013,0.46148834,245957736381930
1.0835209,-0.9317424,-0.5862837,0.32452217,0.34330627,0.2835942,0.30479005,-0.6284019,0.5481648,0.46014088,245957756386185
0.38365173,0.6330838,-1.0945029,0.56199604,0.42577308,0.27779096,0.30347162,-0.6270151,0.5549996,0.45467845,245957776329403
-0.23540783,0.6309787,-0.28759527,0.515723,0.36667186,0.21487185,0.30360815,-0.6261167,0.55988663,0.4498076,245957796272623
-0.21063232,0.5400369,0.22358918,0.56062156,0.30848694,0.21533,0.3041026,-0.62466764,0.56477267,0.44535807,245957816215841
0.14859581,0.5403521,0.086894035,0.48670688,0.072540246,0.18509217,0.3055103,-0.6228868,0.5688172,0.44172683,245957836159062
0.9628711,0.5204824,-0.24072361,0.3764457,0.0035124752,0.17852537,0.30726913,-0.62049997,0.5719687,0.43979248,245957856117540
0.6299362,-0.13032842,-0.4636016,0.38423425,0.001985312,0.15974127,0.30881125,-0.6184549,0.5744315,0.43838072,245957876076018
0.6407423,-0.7896517,-0.3440385,0.52549684,-0.037873644,0.18936823,0.31067368,-0.61616033,0.5773083,0.43651298,245957896019236
0.9441328,0.0493176,0.17827702,0.5707009,-0.0852157,0.2134974,0.31389436,-0.61277163,0.5809632,0.43412352,245957915962458
0.4363947,-0.10012233,-0.9189539,0.5581781,-0.07544186,0.2041817,0.31659383,-0.60996157,0.5845064,0.43135566,245957935905676
0.41770554,-0.1172905,-0.7012062,0.643852,-0.033750303,0.22953261,0.3195533,-0.6065755,0.5881504,0.4289884,245957955848896
0.2805767,0.4738909,-0.27325773,0.68203104,0.05390886,0.22418754,0.32250032,-0.60302776,0.5926643,0.4255587,245957975807374
0.17617226,0.25265348,-0.42949152,0.6939429,0.11301007,0.11377365,0.3250683,-0.5999531,0.5970023,0.421871,245957995765853
-0.4525051,1.1779908,0.6941271,0.5103779,-0.039858956,0.17012598,0.32792073,-0.59582156,0.6010952,0.4197015,245958015709071
0.35474777,0.43299365,0.8908272,0.26557365,-0.21090123,0.1348485,0.33013988,-0.59341383,0.6028167,0.41890296,245958035652291
1.1656928,0.015838027,0.7678375,0.31413746,-0.41080686,0.14813483,0.33286053,-0.59035766,0.60376906,0.41969588,245958055595509
1.3549671,-0.47599447,0.78368473,0.5128214,-0.7031059,0.09468412,0.33782586,-0.58590084,0.60427785,0.42123893,245958075538730
0.8905611,-1.2491078,-0.081258774,1.0569496,-0.8578075,-0.22220223,0.34744388,-0.5798752,0.60455734,0.42135265,245958095497209
-0.5672798,-0.34208876,-1.6931717,1.1562152,-1.0143417,-0.3724751,0.3621691,-0.573775,0.604115,0.41792467,245958115455687
-0.12070179,1.4864616,-1.3606088,0.7812967,-0.852157,-0.16523905,0.37496972,-0.56776536,0.60310906,0.4162928,245958135398905
-0.5869608,0.3081941,-0.2483387,0.7276932,-0.65836,-0.07422013,0.38320333,-0.5629704,0.60253423,0.4161397,245958155342126
-0.6570091,-0.8053698,0.25051093,1.1869112,-0.48075095,-0.010842858,0.3916198,-0.55744493,0.6039495,0.4136837,245958175300604
-0.4975872,-0.7049246,0.5198159,1.5615243,-0.41263947,0.22449298,0.40205765,-0.54941577,0.6085189,0.4076725,245958195259082
0.43155193,-0.03998503,0.44417453,1.5577064,-0.24220806,0.29749137,0.41178772,-0.5392826,0.615984,0.40021092,245958215202300
-0.4861021,-1.8403878,1.0270526,0.9502009,-0.513585,0.032070424,0.42353845,-0.53341997,0.61653423,0.39492276,245958235145520
-0.18929291,-1.226713,-0.6225374,2.0105102,-0.15760323,0.37384954,0.4321451,-0.5261927,0.6205837,0.38890585,245958255088738
0.40450573,-0.15080968,-0.92339206,2.2414174,-0.25503623,0.2782491,0.44349858,-0.51294035,0.6312046,0.37653944,245958275031960
0.41296196,1.1902822,-0.89965844,1.1064297,0.26068676,0.3408628,0.44224647,-0.4996907,0.6478031,0.36753026,245958294929402
-0.9686527,1.3480567,-0.041052103,-0.035430185,0.23182335,0.04917465,0.44069657,-0.49845183,0.65144897,0.3646185,245958314826846
-1.6832018,0.03791377,1.2473681,-0.00580322,-0.048716504,0.15714508,0.43847746,-0.4997006,0.6511354,0.36614153,245958334785324
-0.8501215,-0.27824545,1.4104937,0.66339964,-0.3275765,0.29917124,0.44148377,-0.49586076,0.651699,0.36674607,245958354743802
-0.010365486,0.39225674,1.3948009,0.98456204,-0.4297437,0.44073927,0.44861424,-0.4863959,0.6542142,0.36628988,245958374702280
-0.0067977905,0.08440024,1.2429643,0.8355109,-0.6076582,0.25060746,0.45545444,-0.4771653,0.65755874,0.36399305,245958394660758
-0.67724705,0.011441588,1.4585023,-0.15103643,-1.0351112,-0.013286319,0.46394315,-0.4711948,0.65416896,0.36714467,245958414649754
-0.6021137,-0.48175114,1.8585304,-0.8733846,-1.2605205,-0.3436117,0.47249523,-0.4703076,0.64229614,0.37817284,245958434638750
-0.60734177,-1.023774,1.8972766,-1.0839803,-1.3445144,-0.58001655,0.47967196,-0.4739729,0.62715507,0.38979626,245958454581969
-0.63920975,-1.2790112,1.2471135,-1.1049025,-1.4101825,-0.68798697,0.48622862,-0.47807232,0.61235684,0.40005952,245958474525189
-0.38206768,-1.2306172,-0.16760147,-1.3080152,-1.3660474,-0.84299403,0.49232322,-0.4827853,0.59690595,0.41017002,245958494483667
-0.16613483,-1.4944448,-1.4703889,-1.5424347,-1.1754575,-1.0493138,0.49660546,-0.49079913,0.5798526,0.41984564,245958514442145
-0.2562275,-1.8156679,-2.027285,-1.4592043,-0.94974273,-1.2021828,0.4996614,-0.5008683,0.56224173,0.42819816,245958534385363
-0.3716774,-1.7153518,-2.655838,-1.1565206,-0.7304421,-1.2811371,0.5029975,-0.5109201,0.54613197,0.43323666,245958554328584
-0.32175064,-1.272322,-2.755141,-0.90010995,-0.52320606,-1.3558154,0.50683755,-0.5204397,0.5319985,0.43501255,245958574287062
-0.15958118,-1.006839,-2.5760984,-0.581391,-0.33964106,-1.4291192,0.51112056,-0.52992153,0.5193001,0.43389678,245958594245540
0.061634064,-1.0047778,-2.2051713,-0.05024367,-0.1339322,-1.48089,0.51645356,-0.53883266,0.5090267,0.42875037,245958614188758
0.07524109,-0.5874312,-2.095963,0.605062,0.08811731,-1.481501,0.5237375,-0.54578996,0.50258535,0.41859326,245958634131980
-0.08140659,-0.09270978,-2.1683574,1.1556044,0.26419923,-1.4596626,0.5334242,-0.5494701,0.49989507,0.40453216,245958654075198
-0.26010704,0.30716074,-2.256699,1.517542,0.3678936,-1.3784174,0.54476976,-0.55058235,0.4996691,0.3878348,245958674018418
-0.11455917,0.76734924,-2.270391,1.6740762,0.4027129,-1.2913691,0.55556655,-0.55015314,0.50192714,0.36979255,245958693915860
0.21940994,0.93152905,-1.7705169,1.6771306,0.4859433,-1.2029464,0.5523404,-0.55381,0.5164928,0.34849635,245958713813304
0.47411156,0.9884975,-1.7515061,1.5427402,0.59742624,-1.116509,0.5586269,-0.5537609,0.52188784,0.33002725,245958733817558
0.3996315,1.062762,-1.7253364,1.2873985,0.7180721,-1.0691669,0.56121886,-0.55531,0.5282643,0.3124117,245958753821813
-0.013612747,0.8559184,-1.7031168,1.0871874,0.80924374,-1.0112875,0.56362695,-0.5576987,0.5326534,0.29593447,245958773765031
-0.42368412,0.5107095,-1.4010434,1.0603093,0.8142834,-0.95478237,0.5674329,-0.55959207,0.5350433,0.28036666,245958793708252
-0.5819483,0.23365259,-0.9941735,1.2461652,0.7640397,-0.9074403,0.57202774,-0.56032014,0.537407,0.26461178,245958813666731
-0.48320103,0.104726315,-0.5321319,1.6293303,0.7174612,-0.81336707,0.5782022,-0.55872864,0.5404118,0.24791084,245958833625209
-0.1827631,-0.024187803,-0.39929914,2.0780108,0.70386946,-0.7473936,0.5867175,-0.553515,0.54475784,0.22939636,245958853568427
-0.057370186,-0.10658836,-0.48219633,2.4683537,0.75808376,-0.79702646,0.5970858,-0.54556787,0.54993844,0.20835575,245958873511648
-0.4226656,-0.48703194,-0.4081608,2.773481,0.80573124,-0.7959574,0.6086715,-0.5356793,0.55546874,0.18444842,245958893454866
-0.9492531,-0.36764717,0.41284335,3.158937,0.7454083,-0.72021013,0.6211381,-0.5230706,0.5614847,0.15912127,245958913398086
-1.1577978,-0.1313343,0.8049803,3.6560285,0.5693264,-0.76174897,0.63603777,-0.5066437,0.5669043,0.13186184,245958933356564
-1.0506458,0.04491377,0.52118087,3.9891028,0.4381431,-0.73853606,0.65361947,-0.48633048,0.5707802,0.102343686,245958953315042
-0.64544487,0.4188156,-0.07190126,3.8486037,0.28512135,-0.8374963,0.6712893,-0.46443328,0.57305014,0.07270514,245958973258260
-0.48720455,0.67889214,0.13782266,3.2575917,0.19837849,-0.9425651,0.68689305,-0.44538307,0.57251376,0.045165036,245958993201482
-0.7867727,0.92680645,1.170625,2.6868908,0.11209377,-0.9944886,0.7010921,-0.42901644,0.5690331,0.024820467,245959013144700
-0.99538994,0.5716677,1.2348539,2.2896757,-0.03604105,-0.999681,0.71141464,-0.41743714,0.56534845,0.0040800157,245959033087921
-0.5246291,0.31606197,0.57630074,1.8052595,-0.13775012,-1.0812315,0.7205965,-0.40831318,0.56019455,-0.0142547535,245959053046399
-0.14743614,0.40798616,0.24456596,1.2124147,-0.08445212,-1.2622004,0.7270252,-0.40435082,0.5540865,-0.030379863,245959073004877
-0.11730385,-0.02454853,-0.109853506,0.805884,0.018020526,-1.3797919,0.73035026,-0.40507564,0.5481544,-0.04504573,245959092948095
-0.20180225,-1.2580652,-0.06736469,0.8730792,0.058337633,-1.4124732,0.7323112,-0.40738523,0.54239196,-0.059737936,245959112891315
0.0,0.0,0.0,1.0677924,0.086437434,-1.3952162,1.0,0.0,0.0,0.0,245959132834533
